participant,stim,condition,category_A_label,category_B_label,category,angle,radius,angle_psy,radius_psy,key_choice,correct,rt,block_n,trial_n,category_choice
10,15,switch/standard,j,f,A,25,140,12.129448921922751,51.77476957,j,1,5.402878699998837,1,1,A
10,23,switch/standard,j,f,B,40,85,38.21996555398914,5.057706707981728,f,1,4.612922000000253,1,2,B
10,11,switch/standard,j,f,B,25,30,13.264524555129096,-38.2203846,j,0,2.094713800004683,1,3,A
10,17,switch/standard,j,f,B,33,57,26.21866752665977,-14.79865055,j,0,2.7890576999634504,1,4,A
10,12,switch/standard,j,f,B,25,57,9.177647168036223,-16.07892918,j,0,3.216026599984616,1,5,A
10,5,switch/standard,j,f,A,10,140,-16.71390068,50.111230393533226,j,1,2.8425215000170283,1,6,A
10,18,switch/standard,j,f,B,33,85,26.821232143487904,6.976824754974014,f,1,1.1488067000173032,1,7,B
10,14,switch/standard,j,f,A,25,113,8.045214428,27.52140038259675,j,1,2.195140599971637,1,8,A
10,4,switch/standard,j,f,A,10,113,-23.83479794,30.479004461502832,j,1,1.3201529000070875,1,9,A
10,10,switch/standard,j,f,A,17,140,-1.732665378,46.70107673091564,j,1,1.175846600031946,1,10,A
10,6,switch/standard,j,f,B,17,30,-3.854444584,-37.8392214,f,1,1.2928212000406347,1,11,B
10,24,switch/standard,j,f,B,40,113,37.71162000489743,24.31290640287821,j,0,0.6368188000051305,1,12,A
10,2,switch/standard,j,f,A,10,57,-24.53495333,-12.0763604,j,1,0.8003460000036284,1,13,A
10,21,switch/standard,j,f,B,40,30,45.13982813678688,-35.30081098,f,1,0.6141937000211328,1,14,B
10,8,switch/standard,j,f,A,17,85,-8.995342757,8.387433417892344,j,1,0.6417116999509744,1,15,A
10,3,switch/standard,j,f,A,10,85,-26.47077232,11.92758930596587,j,1,0.6137738000252284,1,16,A
10,22,switch/standard,j,f,B,40,57,41.88083319458841,-14.98800492,f,1,0.6263739000423811,1,17,B
10,20,switch/standard,j,f,A,33,140,26.14711175410772,43.96860584938808,j,1,1.1906306000309996,1,18,A
10,9,switch/standard,j,f,A,17,113,-5.541832691,31.07890857909637,j,1,0.7471126999589615,1,19,A
10,16,switch/standard,j,f,B,33,30,30.19684495481618,-38.42373928,f,1,0.8268501000129618,1,20,B
10,21,switch/standard,j,f,B,40,30,45.13982813678688,-35.30081098,f,1,0.671004899952095,2,21,B
10,17,switch/standard,j,f,B,33,57,26.21866752665977,-14.79865055,j,0,1.1049854999873787,2,22,A
10,20,switch/standard,j,f,A,33,140,26.14711175410772,43.96860584938808,j,1,2.8089532000012696,2,23,A
10,9,switch/standard,j,f,A,17,113,-5.541832691,31.07890857909637,j,1,1.1958679999806918,2,24,A
10,11,switch/standard,j,f,B,25,30,13.264524555129096,-38.2203846,f,1,0.47382469999138266,2,25,B
10,12,switch/standard,j,f,B,25,57,9.177647168036223,-16.07892918,j,0,1.171014500025194,2,26,A
10,8,switch/standard,j,f,A,17,85,-8.995342757,8.387433417892344,j,1,1.2000840999535285,2,27,A
10,22,switch/standard,j,f,B,40,57,41.88083319458841,-14.98800492,f,1,0.765134199988097,2,28,B
10,14,switch/standard,j,f,A,25,113,8.045214428,27.52140038259675,j,1,0.9044508000370116,2,29,A
10,6,switch/standard,j,f,B,17,30,-3.854444584,-37.8392214,f,1,0.9062479000422172,2,30,B
10,5,switch/standard,j,f,A,10,140,-16.71390068,50.111230393533226,j,1,2.2183486000285484,2,31,A
10,2,switch/standard,j,f,A,10,57,-24.53495333,-12.0763604,j,1,1.0058746000286192,2,32,A
10,15,switch/standard,j,f,A,25,140,12.129448921922751,51.77476957,j,1,0.9058989000041038,2,33,A
10,18,switch/standard,j,f,B,33,85,26.821232143487904,6.976824754974014,f,1,0.5786058999947272,2,34,B
10,4,switch/standard,j,f,A,10,113,-23.83479794,30.479004461502832,j,1,0.7696568000246771,2,35,A
10,23,switch/standard,j,f,B,40,85,38.21996555398914,5.057706707981728,f,1,0.6792759000090882,2,36,B
10,3,switch/standard,j,f,A,10,85,-26.47077232,11.92758930596587,j,1,0.7294830000028014,2,37,A
10,10,switch/standard,j,f,A,17,140,-1.732665378,46.70107673091564,j,1,0.7928482999559492,2,38,A
10,16,switch/standard,j,f,B,33,30,30.19684495481618,-38.42373928,f,1,0.8388344999984838,2,39,B
10,24,switch/standard,j,f,B,40,113,37.71162000489743,24.31290640287821,f,1,2.282327199995052,2,40,B
10,10,switch/standard,j,f,A,17,140,-1.732665378,46.70107673091564,j,1,0.7230982999899425,3,41,A
10,23,switch/standard,j,f,B,40,85,38.21996555398914,5.057706707981728,f,1,0.5717627999838442,3,42,B
10,12,switch/standard,j,f,B,25,57,9.177647168036223,-16.07892918,f,1,0.7376459999941289,3,43,B
10,24,switch/standard,j,f,B,40,113,37.71162000489743,24.31290640287821,f,1,1.0324339999933727,3,44,B
10,4,switch/standard,j,f,A,10,113,-23.83479794,30.479004461502832,j,1,0.5969101999653503,3,45,A
10,11,switch/standard,j,f,B,25,30,13.264524555129096,-38.2203846,f,1,0.8341468999860808,3,46,B
10,16,switch/standard,j,f,B,33,30,30.19684495481618,-38.42373928,f,1,1.966261699970346,3,47,B
10,15,switch/standard,j,f,A,25,140,12.129448921922751,51.77476957,j,1,0.6355530000291765,3,48,A
10,6,switch/standard,j,f,B,17,30,-3.854444584,-37.8392214,f,1,2.215615599998273,3,49,B
10,2,switch/standard,j,f,A,10,57,-24.53495333,-12.0763604,j,1,1.410808500018902,3,50,A
10,20,switch/standard,j,f,A,33,140,26.14711175410772,43.96860584938808,j,1,2.5503185000270605,3,51,A
10,14,switch/standard,j,f,A,25,113,8.045214428,27.52140038259675,j,1,1.2445368000189774,3,52,A
10,17,switch/standard,j,f,B,33,57,26.21866752665977,-14.79865055,f,1,0.9284785999916494,3,53,B
10,18,switch/standard,j,f,B,33,85,26.821232143487904,6.976824754974014,f,1,1.983967299980577,3,54,B
10,22,switch/standard,j,f,B,40,57,41.88083319458841,-14.98800492,f,1,0.819891799998004,3,55,B
10,5,switch/standard,j,f,A,10,140,-16.71390068,50.111230393533226,j,1,0.792639399995096,3,56,A
10,9,switch/standard,j,f,A,17,113,-5.541832691,31.07890857909637,j,1,1.19027650001226,3,57,A
10,21,switch/standard,j,f,B,40,30,45.13982813678688,-35.30081098,f,1,0.7473900999757461,3,58,B
10,3,switch/standard,j,f,A,10,85,-26.47077232,11.92758930596587,j,1,1.2422117000096478,3,59,A
10,8,switch/standard,j,f,A,17,85,-8.995342757,8.387433417892344,j,1,1.6300122999818996,3,60,A
10,11,switch/standard,j,f,B,25,30,13.264524555129096,-38.2203846,f,1,0.737375000026077,4,61,B
10,22,switch/standard,j,f,B,40,57,41.88083319458841,-14.98800492,f,1,0.8791139000095427,4,62,B
10,15,switch/standard,j,f,A,25,140,12.129448921922751,51.77476957,j,1,0.8892150999745354,4,63,A
10,20,switch/standard,j,f,A,33,140,26.14711175410772,43.96860584938808,j,1,1.9066111000138335,4,64,A
10,23,switch/standard,j,f,B,40,85,38.21996555398914,5.057706707981728,f,1,0.7939354999689385,4,65,B
10,6,switch/standard,j,f,B,17,30,-3.854444584,-37.8392214,f,1,1.4958076000330038,4,66,B
10,24,switch/standard,j,f,B,40,113,37.71162000489743,24.31290640287821,f,1,3.104846099973656,4,67,B
10,10,switch/standard,j,f,A,17,140,-1.732665378,46.70107673091564,j,1,0.822865099995397,4,68,A
10,18,switch/standard,j,f,B,33,85,26.821232143487904,6.976824754974014,f,1,1.0266968999640085,4,69,B
10,8,switch/standard,j,f,A,17,85,-8.995342757,8.387433417892344,j,1,1.0627234000130557,4,70,A
10,12,switch/standard,j,f,B,25,57,9.177647168036223,-16.07892918,f,1,0.6975978999980725,4,71,B
10,3,switch/standard,j,f,A,10,85,-26.47077232,11.92758930596587,j,1,0.8417250999482349,4,72,A
10,21,switch/standard,j,f,B,40,30,45.13982813678688,-35.30081098,f,1,0.7485580999637023,4,73,B
10,14,switch/standard,j,f,A,25,113,8.045214428,27.52140038259675,j,1,1.0365598000353202,4,74,A
10,16,switch/standard,j,f,B,33,30,30.19684495481618,-38.42373928,f,1,0.7283707000315189,4,75,B
10,9,switch/standard,j,f,A,17,113,-5.541832691,31.07890857909637,j,1,1.4244821000029333,4,76,A
10,5,switch/standard,j,f,A,10,140,-16.71390068,50.111230393533226,j,1,0.7564986000070348,4,77,A
10,4,switch/standard,j,f,A,10,113,-23.83479794,30.479004461502832,j,1,0.6340145999565721,4,78,A
10,2,switch/standard,j,f,A,10,57,-24.53495333,-12.0763604,j,1,0.8782635999959894,4,79,A
10,17,switch/standard,j,f,B,33,57,26.21866752665977,-14.79865055,f,1,0.984083899995312,4,80,B
10,21,switch/standard,j,f,B,40,30,45.13982813678688,-35.30081098,f,1,1.564831099996809,5,81,B
10,10,switch/standard,j,f,A,17,140,-1.732665378,46.70107673091564,j,1,0.8279711999930441,5,82,A
10,6,switch/standard,j,f,B,17,30,-3.854444584,-37.8392214,f,1,1.7039113999926483,5,83,B
10,17,switch/standard,j,f,B,33,57,26.21866752665977,-14.79865055,f,1,1.2150929999770597,5,84,B
10,8,switch/standard,j,f,A,17,85,-8.995342757,8.387433417892344,j,1,1.203409100009594,5,85,A
10,14,switch/standard,j,f,A,25,113,8.045214428,27.52140038259675,j,1,1.2009419000241903,5,86,A
10,5,switch/standard,j,f,A,10,140,-16.71390068,50.111230393533226,j,1,0.9175875000073574,5,87,A
10,3,switch/standard,j,f,A,10,85,-26.47077232,11.92758930596587,j,1,0.8286469000158831,5,88,A
10,16,switch/standard,j,f,B,33,30,30.19684495481618,-38.42373928,f,1,0.5935346999904141,5,89,B
10,18,switch/standard,j,f,B,33,85,26.821232143487904,6.976824754974014,f,1,0.5269133999827318,5,90,B
10,24,switch/standard,j,f,B,40,113,37.71162000489743,24.31290640287821,f,1,0.7679534999770112,5,91,B
10,23,switch/standard,j,f,B,40,85,38.21996555398914,5.057706707981728,f,1,1.0463147000409665,5,92,B
10,11,switch/standard,j,f,B,25,30,13.264524555129096,-38.2203846,f,1,1.352806199982297,5,93,B
10,2,switch/standard,j,f,A,10,57,-24.53495333,-12.0763604,j,1,0.8153465999639593,5,94,A
10,22,switch/standard,j,f,B,40,57,41.88083319458841,-14.98800492,f,1,0.8359026000252925,5,95,B
10,15,switch/standard,j,f,A,25,140,12.129448921922751,51.77476957,j,1,0.808144100010395,5,96,A
10,9,switch/standard,j,f,A,17,113,-5.541832691,31.07890857909637,j,1,0.9554792999988422,5,97,A
10,12,switch/standard,j,f,B,25,57,9.177647168036223,-16.07892918,f,1,0.8984452000004239,5,98,B
10,4,switch/standard,j,f,A,10,113,-23.83479794,30.479004461502832,j,1,0.8039172000135295,5,99,A
10,20,switch/standard,j,f,A,33,140,26.14711175410772,43.96860584938808,j,1,2.81700430001365,5,100,A
11,23,standard/switch,f,j,B,40,85,38.21996555398914,5.057706707981728,f,0,6.978837999980897,1,1,A
11,14,standard/switch,f,j,A,25,113,8.045214428,27.52140038259675,j,0,1.0742945999954827,1,2,B
11,18,standard/switch,f,j,B,33,85,26.821232143487904,6.976824754974014,j,1,2.9153516000369564,1,3,B
11,10,standard/switch,f,j,A,17,140,-1.732665378,46.70107673091564,f,1,0.6418249000562355,1,4,A
11,16,standard/switch,f,j,B,33,30,30.19684495481618,-38.42373928,j,1,1.1015539999934845,1,5,B
11,6,standard/switch,f,j,B,17,30,-3.854444584,-37.8392214,j,1,0.7976768999942578,1,6,B
11,11,standard/switch,f,j,B,25,30,13.264524555129096,-38.2203846,j,1,0.627130999986548,1,7,B
11,15,standard/switch,f,j,A,25,140,12.129448921922751,51.77476957,f,1,1.0792576000094414,1,8,A
11,20,standard/switch,f,j,A,33,140,26.14711175410772,43.96860584938808,f,1,1.0248280999949202,1,9,A
11,5,standard/switch,f,j,A,10,140,-16.71390068,50.111230393533226,f,1,1.101175699965097,1,10,A
11,4,standard/switch,f,j,A,10,113,-23.83479794,30.479004461502832,f,1,2.2461375999846496,1,11,A
11,12,standard/switch,f,j,B,25,57,9.177647168036223,-16.07892918,j,1,0.880202799977269,1,12,B
11,9,standard/switch,f,j,A,17,113,-5.541832691,31.07890857909637,f,1,1.8345550000085495,1,13,A
11,24,standard/switch,f,j,B,40,113,37.71162000489743,24.31290640287821,f,0,3.757178500003647,1,14,A
11,2,standard/switch,f,j,A,10,57,-24.53495333,-12.0763604,f,1,1.3854536000289954,1,15,A
11,8,standard/switch,f,j,A,17,85,-8.995342757,8.387433417892344,f,1,1.7015861999825574,1,16,A
11,22,standard/switch,f,j,B,40,57,41.88083319458841,-14.98800492,j,1,0.5178663000115193,1,17,B
11,21,standard/switch,f,j,B,40,30,45.13982813678688,-35.30081098,j,1,0.5187354999943636,1,18,B
11,3,standard/switch,f,j,A,10,85,-26.47077232,11.92758930596587,f,1,0.6381369000300765,1,19,A
11,17,standard/switch,f,j,B,33,57,26.21866752665977,-14.79865055,j,1,0.5937123000039719,1,20,B
11,11,standard/switch,f,j,B,25,30,13.264524555129096,-38.2203846,j,1,0.6310024000122212,2,21,B
11,6,standard/switch,f,j,B,17,30,-3.854444584,-37.8392214,j,1,0.46735490002902225,2,22,B
11,9,standard/switch,f,j,A,17,113,-5.541832691,31.07890857909637,f,1,0.5019368000212125,2,23,A
11,20,standard/switch,f,j,A,33,140,26.14711175410772,43.96860584938808,f,1,0.7270234000170603,2,24,A
11,16,standard/switch,f,j,B,33,30,30.19684495481618,-38.42373928,j,1,0.5837185999844223,2,25,B
11,12,standard/switch,f,j,B,25,57,9.177647168036223,-16.07892918,j,1,0.4528360999538563,2,26,B
11,3,standard/switch,f,j,A,10,85,-26.47077232,11.92758930596587,f,1,0.6403559999889694,2,27,A
11,10,standard/switch,f,j,A,17,140,-1.732665378,46.70107673091564,f,1,0.6991230000276119,2,28,A
11,18,standard/switch,f,j,B,33,85,26.821232143487904,6.976824754974014,j,1,3.4054184000124224,2,29,B
11,8,standard/switch,f,j,A,17,85,-8.995342757,8.387433417892344,f,1,0.7201449000276625,2,30,A
11,14,standard/switch,f,j,A,25,113,8.045214428,27.52140038259675,f,1,0.5841803000075743,2,31,A
11,15,standard/switch,f,j,A,25,140,12.129448921922751,51.77476957,f,1,0.6052063000388443,2,32,A
11,23,standard/switch,f,j,B,40,85,38.21996555398914,5.057706707981728,j,1,2.2579022999852896,2,33,B
11,21,standard/switch,f,j,B,40,30,45.13982813678688,-35.30081098,j,1,0.6752825999865308,2,34,B
11,2,standard/switch,f,j,A,10,57,-24.53495333,-12.0763604,f,1,0.5983125999919139,2,35,A
11,22,standard/switch,f,j,B,40,57,41.88083319458841,-14.98800492,j,1,0.7473653000197373,2,36,B
11,24,standard/switch,f,j,B,40,113,37.71162000489743,24.31290640287821,f,0,1.0983540000161156,2,37,A
11,5,standard/switch,f,j,A,10,140,-16.71390068,50.111230393533226,f,1,0.58630250004353,2,38,A
11,4,standard/switch,f,j,A,10,113,-23.83479794,30.479004461502832,f,1,0.5199063000036404,2,39,A
11,17,standard/switch,f,j,B,33,57,26.21866752665977,-14.79865055,j,1,0.5929093000013381,2,40,B
11,15,standard/switch,f,j,A,25,140,12.129448921922751,51.77476957,f,1,0.7020341999595985,3,41,A
11,8,standard/switch,f,j,A,17,85,-8.995342757,8.387433417892344,f,1,0.6552022999967448,3,42,A
11,21,standard/switch,f,j,B,40,30,45.13982813678688,-35.30081098,j,1,0.5533629999845289,3,43,B
11,23,standard/switch,f,j,B,40,85,38.21996555398914,5.057706707981728,j,1,4.472806900041178,3,44,B
11,11,standard/switch,f,j,B,25,30,13.264524555129096,-38.2203846,f,0,0.5846136000473052,3,45,A
11,2,standard/switch,f,j,A,10,57,-24.53495333,-12.0763604,f,1,0.7799512999481522,3,46,A
11,6,standard/switch,f,j,B,17,30,-3.854444584,-37.8392214,j,1,0.5711620000074618,3,47,B
11,3,standard/switch,f,j,A,10,85,-26.47077232,11.92758930596587,f,1,0.4978951000375673,3,48,A
11,20,standard/switch,f,j,A,33,140,26.14711175410772,43.96860584938808,f,1,1.7297607999644242,3,49,A
11,5,standard/switch,f,j,A,10,140,-16.71390068,50.111230393533226,f,1,0.7856081000063568,3,50,A
11,24,standard/switch,f,j,B,40,113,37.71162000489743,24.31290640287821,j,1,1.2304459000006318,3,51,B
11,12,standard/switch,f,j,B,25,57,9.177647168036223,-16.07892918,j,1,0.6030431999824941,3,52,B
11,14,standard/switch,f,j,A,25,113,8.045214428,27.52140038259675,f,1,0.8062177000101656,3,53,A
11,17,standard/switch,f,j,B,33,57,26.21866752665977,-14.79865055,j,1,0.6359025000128895,3,54,B
11,18,standard/switch,f,j,B,33,85,26.821232143487904,6.976824754974014,j,1,1.9599629000294951,3,55,B
11,16,standard/switch,f,j,B,33,30,30.19684495481618,-38.42373928,j,1,0.7572698000003584,3,56,B
11,9,standard/switch,f,j,A,17,113,-5.541832691,31.07890857909637,f,1,0.5643522000173107,3,57,A
11,10,standard/switch,f,j,A,17,140,-1.732665378,46.70107673091564,f,1,0.5228442999650724,3,58,A
11,4,standard/switch,f,j,A,10,113,-23.83479794,30.479004461502832,f,1,0.4431649000034667,3,59,A
11,22,standard/switch,f,j,B,40,57,41.88083319458841,-14.98800492,j,1,0.48726989998249337,3,60,B
11,6,standard/switch,f,j,B,17,30,-3.854444584,-37.8392214,j,1,0.5123799999710172,4,61,B
11,2,standard/switch,f,j,A,10,57,-24.53495333,-12.0763604,f,1,0.5448193000047468,4,62,A
11,11,standard/switch,f,j,B,25,30,13.264524555129096,-38.2203846,j,1,0.5045214000274427,4,63,B
11,8,standard/switch,f,j,A,17,85,-8.995342757,8.387433417892344,f,1,0.5136008999543265,4,64,A
11,16,standard/switch,f,j,B,33,30,30.19684495481618,-38.42373928,j,1,0.5144391999929212,4,65,B
11,23,standard/switch,f,j,B,40,85,38.21996555398914,5.057706707981728,j,1,1.0426297999802046,4,66,B
11,21,standard/switch,f,j,B,40,30,45.13982813678688,-35.30081098,j,1,0.43809150002198294,4,67,B
11,3,standard/switch,f,j,A,10,85,-26.47077232,11.92758930596587,f,1,0.49715390003984794,4,68,A
11,10,standard/switch,f,j,A,17,140,-1.732665378,46.70107673091564,f,1,0.4275275000254624,4,69,A
11,9,standard/switch,f,j,A,17,113,-5.541832691,31.07890857909637,f,1,0.4223296000272967,4,70,A
11,17,standard/switch,f,j,B,33,57,26.21866752665977,-14.79865055,f,0,0.5000952999689616,4,71,A
11,15,standard/switch,f,j,A,25,140,12.129448921922751,51.77476957,f,1,0.4603658999549225,4,72,A
11,5,standard/switch,f,j,A,10,140,-16.71390068,50.111230393533226,f,1,0.439354500034824,4,73,A
11,20,standard/switch,f,j,A,33,140,26.14711175410772,43.96860584938808,f,1,1.1548618999659084,4,74,A
11,22,standard/switch,f,j,B,40,57,41.88083319458841,-14.98800492,j,1,0.4336510999710299,4,75,B
11,18,standard/switch,f,j,B,33,85,26.821232143487904,6.976824754974014,j,1,0.7339211000362411,4,76,B
11,4,standard/switch,f,j,A,10,113,-23.83479794,30.479004461502832,f,1,1.1176674999878742,4,77,A
11,12,standard/switch,f,j,B,25,57,9.177647168036223,-16.07892918,j,1,0.5658216000301763,4,78,B
11,14,standard/switch,f,j,A,25,113,8.045214428,27.52140038259675,f,1,0.9804851000080816,4,79,A
11,24,standard/switch,f,j,B,40,113,37.71162000489743,24.31290640287821,j,1,1.434798400034197,4,80,B
11,8,standard/switch,f,j,A,17,85,-8.995342757,8.387433417892344,f,1,0.5572814000188373,5,81,A
11,10,standard/switch,f,j,A,17,140,-1.732665378,46.70107673091564,f,1,0.7319621000206098,5,82,A
11,4,standard/switch,f,j,A,10,113,-23.83479794,30.479004461502832,f,1,0.5561537999892607,5,83,A
11,6,standard/switch,f,j,B,17,30,-3.854444584,-37.8392214,j,1,0.7879076999961399,5,84,B
11,2,standard/switch,f,j,A,10,57,-24.53495333,-12.0763604,f,1,0.7775835999636911,5,85,A
11,23,standard/switch,f,j,B,40,85,38.21996555398914,5.057706707981728,j,1,0.7268748999922536,5,86,B
11,15,standard/switch,f,j,A,25,140,12.129448921922751,51.77476957,f,1,0.5582762000267394,5,87,A
11,5,standard/switch,f,j,A,10,140,-16.71390068,50.111230393533226,j,0,0.6218273999984376,5,88,B
11,11,standard/switch,f,j,B,25,30,13.264524555129096,-38.2203846,j,1,0.5774508999893442,5,89,B
11,22,standard/switch,f,j,B,40,57,41.88083319458841,-14.98800492,j,1,1.1029989999951797,5,90,B
11,21,standard/switch,f,j,B,40,30,45.13982813678688,-35.30081098,j,1,0.6073115000035614,5,91,B
11,17,standard/switch,f,j,B,33,57,26.21866752665977,-14.79865055,j,1,1.116040199995041,5,92,B
11,14,standard/switch,f,j,A,25,113,8.045214428,27.52140038259675,f,1,0.7406138000078499,5,93,A
11,9,standard/switch,f,j,A,17,113,-5.541832691,31.07890857909637,f,1,0.7321990999625996,5,94,A
11,3,standard/switch,f,j,A,10,85,-26.47077232,11.92758930596587,f,1,0.4608270000317134,5,95,A
11,24,standard/switch,f,j,B,40,113,37.71162000489743,24.31290640287821,j,1,0.8631939999759197,5,96,B
11,20,standard/switch,f,j,A,33,140,26.14711175410772,43.96860584938808,f,1,0.705115900025703,5,97,A
11,12,standard/switch,f,j,B,25,57,9.177647168036223,-16.07892918,j,1,0.538371599977836,5,98,B
11,16,standard/switch,f,j,B,33,30,30.19684495481618,-38.42373928,j,1,0.618550100014545,5,99,B
11,18,standard/switch,f,j,B,33,85,26.821232143487904,6.976824754974014,f,0,0.8546681000152603,5,100,A
12,21,switch/standard,f,j,B,40,30,45.13982813678688,-35.30081098,j,1,7.935169300006237,1,1,B
12,24,switch/standard,f,j,B,40,113,37.71162000489743,24.31290640287821,f,0,1.211507599975448,1,2,A
12,6,switch/standard,f,j,B,17,30,-3.854444584,-37.8392214,f,0,1.3183405000017956,1,3,A
12,23,switch/standard,f,j,B,40,85,38.21996555398914,5.057706707981728,j,1,2.020575800037477,1,4,B
12,4,switch/standard,f,j,A,10,113,-23.83479794,30.479004461502832,f,1,1.7359160000341944,1,5,A
12,2,switch/standard,f,j,A,10,57,-24.53495333,-12.0763604,f,1,4.231270699994639,1,6,A
12,12,switch/standard,f,j,B,25,57,9.177647168036223,-16.07892918,j,1,0.9042352000251412,1,7,B
12,3,switch/standard,f,j,A,10,85,-26.47077232,11.92758930596587,f,1,0.7058300000499003,1,8,A
12,17,switch/standard,f,j,B,33,57,26.21866752665977,-14.79865055,j,1,1.1367928000399845,1,9,B
12,8,switch/standard,f,j,A,17,85,-8.995342757,8.387433417892344,j,0,2.304245999956038,1,10,B
12,22,switch/standard,f,j,B,40,57,41.88083319458841,-14.98800492,j,1,0.8937281999969855,1,11,B
12,16,switch/standard,f,j,B,33,30,30.19684495481618,-38.42373928,j,1,0.8482691000099294,1,12,B
12,11,switch/standard,f,j,B,25,30,13.264524555129096,-38.2203846,f,0,1.580636200029403,1,13,A
12,9,switch/standard,f,j,A,17,113,-5.541832691,31.07890857909637,f,1,8.704925700032618,1,14,A
12,5,switch/standard,f,j,A,10,140,-16.71390068,50.111230393533226,f,1,1.1158628000412136,1,15,A
12,14,switch/standard,f,j,A,25,113,8.045214428,27.52140038259675,f,1,2.10703569999896,1,16,A
12,20,switch/standard,f,j,A,33,140,26.14711175410772,43.96860584938808,j,0,2.7548924000002444,1,17,B
12,18,switch/standard,f,j,B,33,85,26.821232143487904,6.976824754974014,j,1,1.5915095999953337,1,18,B
12,15,switch/standard,f,j,A,25,140,12.129448921922751,51.77476957,f,1,7.316388999985065,1,19,A
12,10,switch/standard,f,j,A,17,140,-1.732665378,46.70107673091564,f,1,2.9838511000270955,1,20,A
12,4,switch/standard,f,j,A,10,113,-23.83479794,30.479004461502832,f,1,0.7485012000543065,2,21,A
12,21,switch/standard,f,j,B,40,30,45.13982813678688,-35.30081098,j,1,0.6680459000053816,2,22,B
12,16,switch/standard,f,j,B,33,30,30.19684495481618,-38.42373928,j,1,0.5645526999724098,2,23,B
12,12,switch/standard,f,j,B,25,57,9.177647168036223,-16.07892918,j,1,6.6452235000324436,2,24,B
12,2,switch/standard,f,j,A,10,57,-24.53495333,-12.0763604,f,1,5.0041921000229195,2,25,A
12,17,switch/standard,f,j,B,33,57,26.21866752665977,-14.79865055,j,1,1.6460873000323772,2,26,B
12,5,switch/standard,f,j,A,10,140,-16.71390068,50.111230393533226,f,1,0.833189700031653,2,27,A
12,8,switch/standard,f,j,A,17,85,-8.995342757,8.387433417892344,f,1,6.396883199980948,2,28,A
12,6,switch/standard,f,j,B,17,30,-3.854444584,-37.8392214,j,1,1.685236299992539,2,29,B
12,11,switch/standard,f,j,B,25,30,13.264524555129096,-38.2203846,j,1,2.1500748000107706,2,30,B
12,22,switch/standard,f,j,B,40,57,41.88083319458841,-14.98800492,f,0,1.0604258999810554,2,31,A
12,20,switch/standard,f,j,A,33,140,26.14711175410772,43.96860584938808,j,0,1.166118000051938,2,32,B
12,3,switch/standard,f,j,A,10,85,-26.47077232,11.92758930596587,f,1,1.1167205000529066,2,33,A
12,24,switch/standard,f,j,B,40,113,37.71162000489743,24.31290640287821,j,1,0.5637651999713853,2,34,B
12,9,switch/standard,f,j,A,17,113,-5.541832691,31.07890857909637,f,1,0.9702607999788596,2,35,A
12,10,switch/standard,f,j,A,17,140,-1.732665378,46.70107673091564,f,1,0.8406838999944739,2,36,A
12,18,switch/standard,f,j,B,33,85,26.821232143487904,6.976824754974014,j,1,0.6997103999601677,2,37,B
12,23,switch/standard,f,j,B,40,85,38.21996555398914,5.057706707981728,j,1,0.5812910000095144,2,38,B
12,15,switch/standard,f,j,A,25,140,12.129448921922751,51.77476957,f,1,1.2588937999680638,2,39,A
12,14,switch/standard,f,j,A,25,113,8.045214428,27.52140038259675,f,1,0.7184161000186577,2,40,A
12,12,switch/standard,f,j,B,25,57,9.177647168036223,-16.07892918,j,1,0.6934020000044256,3,41,B
12,21,switch/standard,f,j,B,40,30,45.13982813678688,-35.30081098,f,0,0.616145099978894,3,42,A
12,17,switch/standard,f,j,B,33,57,26.21866752665977,-14.79865055,j,1,0.8516620000009425,3,43,B
12,11,switch/standard,f,j,B,25,30,13.264524555129096,-38.2203846,f,0,1.3496763000148349,3,44,A
12,23,switch/standard,f,j,B,40,85,38.21996555398914,5.057706707981728,j,1,1.411727200029418,3,45,B
12,6,switch/standard,f,j,B,17,30,-3.854444584,-37.8392214,f,0,6.000579799991101,3,46,A
12,14,switch/standard,f,j,A,25,113,8.045214428,27.52140038259675,f,1,9.280198899970856,3,47,A
12,15,switch/standard,f,j,A,25,140,12.129448921922751,51.77476957,f,1,0.947860500018578,3,48,A
12,16,switch/standard,f,j,B,33,30,30.19684495481618,-38.42373928,j,1,0.6274396000080742,3,49,B
12,4,switch/standard,f,j,A,10,113,-23.83479794,30.479004461502832,f,1,0.976098200015258,3,50,A
12,8,switch/standard,f,j,A,17,85,-8.995342757,8.387433417892344,f,1,0.7821236000163481,3,51,A
12,2,switch/standard,f,j,A,10,57,-24.53495333,-12.0763604,f,1,0.9316270000417716,3,52,A
12,3,switch/standard,f,j,A,10,85,-26.47077232,11.92758930596587,f,1,1.131142699974589,3,53,A
12,5,switch/standard,f,j,A,10,140,-16.71390068,50.111230393533226,f,1,0.8026888000313193,3,54,A
12,24,switch/standard,f,j,B,40,113,37.71162000489743,24.31290640287821,j,1,0.6400239000213332,3,55,B
12,9,switch/standard,f,j,A,17,113,-5.541832691,31.07890857909637,f,1,0.716201999981422,3,56,A
12,18,switch/standard,f,j,B,33,85,26.821232143487904,6.976824754974014,j,1,0.48433900001691654,3,57,B
12,10,switch/standard,f,j,A,17,140,-1.732665378,46.70107673091564,f,1,0.8392197000212036,3,58,A
12,20,switch/standard,f,j,A,33,140,26.14711175410772,43.96860584938808,j,0,1.1211323999450542,3,59,B
12,22,switch/standard,f,j,B,40,57,41.88083319458841,-14.98800492,j,1,2.2894069000030868,3,60,B
12,5,switch/standard,f,j,A,10,140,-16.71390068,50.111230393533226,f,1,4.976552700041793,4,61,A
12,15,switch/standard,f,j,A,25,140,12.129448921922751,51.77476957,j,0,0.8434701999649405,4,62,B
12,10,switch/standard,f,j,A,17,140,-1.732665378,46.70107673091564,f,1,1.597300399967935,4,63,A
12,16,switch/standard,f,j,B,33,30,30.19684495481618,-38.42373928,j,1,0.6915335999801755,4,64,B
12,21,switch/standard,f,j,B,40,30,45.13982813678688,-35.30081098,j,1,0.5007690000347793,4,65,B
12,6,switch/standard,f,j,B,17,30,-3.854444584,-37.8392214,f,0,0.9257707999786362,4,66,A
12,14,switch/standard,f,j,A,25,113,8.045214428,27.52140038259675,j,0,1.0116790999891236,4,67,B
12,20,switch/standard,f,j,A,33,140,26.14711175410772,43.96860584938808,j,0,5.199540000001434,4,68,B
12,22,switch/standard,f,j,B,40,57,41.88083319458841,-14.98800492,j,1,2.1287168999551795,4,69,B
12,23,switch/standard,f,j,B,40,85,38.21996555398914,5.057706707981728,j,1,1.1430431000189856,4,70,B
12,18,switch/standard,f,j,B,33,85,26.821232143487904,6.976824754974014,j,1,0.7902210000320338,4,71,B
12,24,switch/standard,f,j,B,40,113,37.71162000489743,24.31290640287821,j,1,1.3157946999999697,4,72,B
12,12,switch/standard,f,j,B,25,57,9.177647168036223,-16.07892918,f,0,2.6914838000084274,4,73,A
12,11,switch/standard,f,j,B,25,30,13.264524555129096,-38.2203846,f,0,1.1388842000160366,4,74,A
12,4,switch/standard,f,j,A,10,113,-23.83479794,30.479004461502832,f,1,1.8732401999877768,4,75,A
12,9,switch/standard,f,j,A,17,113,-5.541832691,31.07890857909637,f,1,0.6732113999896683,4,76,A
12,8,switch/standard,f,j,A,17,85,-8.995342757,8.387433417892344,f,1,2.1711260000010952,4,77,A
12,2,switch/standard,f,j,A,10,57,-24.53495333,-12.0763604,f,1,1.9925358000327833,4,78,A
12,3,switch/standard,f,j,A,10,85,-26.47077232,11.92758930596587,f,1,0.756622500019148,4,79,A
12,17,switch/standard,f,j,B,33,57,26.21866752665977,-14.79865055,j,1,0.8838485999731347,4,80,B
12,24,switch/standard,f,j,B,40,113,37.71162000489743,24.31290640287821,j,1,1.3736341000185348,5,81,B
12,14,switch/standard,f,j,A,25,113,8.045214428,27.52140038259675,j,0,3.306864799989853,5,82,B
12,12,switch/standard,f,j,B,25,57,9.177647168036223,-16.07892918,f,0,1.568942700047046,5,83,A
12,16,switch/standard,f,j,B,33,30,30.19684495481618,-38.42373928,j,1,0.7982561999815516,5,84,B
12,15,switch/standard,f,j,A,25,140,12.129448921922751,51.77476957,f,1,8.874867099977564,5,85,A
12,21,switch/standard,f,j,B,40,30,45.13982813678688,-35.30081098,j,1,2.0867524000350386,5,86,B
12,8,switch/standard,f,j,A,17,85,-8.995342757,8.387433417892344,j,0,0.8646819000132382,5,87,B
12,20,switch/standard,f,j,A,33,140,26.14711175410772,43.96860584938808,j,0,1.5773038999759592,5,88,B
12,11,switch/standard,f,j,B,25,30,13.264524555129096,-38.2203846,j,1,0.7896383000188507,5,89,B
12,10,switch/standard,f,j,A,17,140,-1.732665378,46.70107673091564,f,1,1.587765500007663,5,90,A
12,3,switch/standard,f,j,A,10,85,-26.47077232,11.92758930596587,f,1,3.455626100010704,5,91,A
12,9,switch/standard,f,j,A,17,113,-5.541832691,31.07890857909637,f,1,0.5846736000385135,5,92,A
12,23,switch/standard,f,j,B,40,85,38.21996555398914,5.057706707981728,j,1,0.5020975000225008,5,93,B
12,22,switch/standard,f,j,B,40,57,41.88083319458841,-14.98800492,j,1,0.5994798000319861,5,94,B
12,6,switch/standard,f,j,B,17,30,-3.854444584,-37.8392214,f,0,0.7485525999800302,5,95,A
12,2,switch/standard,f,j,A,10,57,-24.53495333,-12.0763604,f,1,1.0021195000153966,5,96,A
12,17,switch/standard,f,j,B,33,57,26.21866752665977,-14.79865055,j,1,1.1999456000048667,5,97,B
12,4,switch/standard,f,j,A,10,113,-23.83479794,30.479004461502832,f,1,1.1730683999485336,5,98,A
12,5,switch/standard,f,j,A,10,140,-16.71390068,50.111230393533226,f,1,0.7312554999953136,5,99,A
12,18,switch/standard,f,j,B,33,85,26.821232143487904,6.976824754974014,j,1,0.9938579999725334,5,100,B
13,11,standard/switch,f,j,B,25,30,13.264524555129096,-38.2203846,f,0,7.488695200008806,1,1,A
13,17,standard/switch,f,j,B,33,57,26.21866752665977,-14.79865055,f,0,1.340916000015568,1,2,A
13,16,standard/switch,f,j,B,33,30,30.19684495481618,-38.42373928,j,1,1.8680517000029797,1,3,B
13,21,standard/switch,f,j,B,40,30,45.13982813678688,-35.30081098,j,1,1.4616733999864664,1,4,B
13,14,standard/switch,f,j,A,25,113,8.045214428,27.52140038259675,f,1,1.079228200018406,1,5,A
13,12,standard/switch,f,j,B,25,57,9.177647168036223,-16.07892918,j,1,1.457713200012222,1,6,B
13,15,standard/switch,f,j,A,25,140,12.129448921922751,51.77476957,f,1,1.0117206999857444,1,7,A
13,4,standard/switch,f,j,A,10,113,-23.83479794,30.479004461502832,f,1,1.256568699987838,1,8,A
13,24,standard/switch,f,j,B,40,113,37.71162000489743,24.31290640287821,j,1,2.5709302999894135,1,9,B
13,3,standard/switch,f,j,A,10,85,-26.47077232,11.92758930596587,f,1,1.6474458000157028,1,10,A
13,6,standard/switch,f,j,B,17,30,-3.854444584,-37.8392214,j,1,1.1533132000186015,1,11,B
13,5,standard/switch,f,j,A,10,140,-16.71390068,50.111230393533226,f,1,1.256162800011225,1,12,A
13,23,standard/switch,f,j,B,40,85,38.21996555398914,5.057706707981728,j,1,2.426071399997454,1,13,B
13,8,standard/switch,f,j,A,17,85,-8.995342757,8.387433417892344,f,1,1.3337582999956794,1,14,A
13,2,standard/switch,f,j,A,10,57,-24.53495333,-12.0763604,j,0,2.0445021000050474,1,15,B
13,22,standard/switch,f,j,B,40,57,41.88083319458841,-14.98800492,f,0,2.2539893000212032,1,16,A
13,18,standard/switch,f,j,B,33,85,26.821232143487904,6.976824754974014,f,0,1.3676599999889731,1,17,A
13,10,standard/switch,f,j,A,17,140,-1.732665378,46.70107673091564,f,1,2.1170653000008315,1,18,A
13,20,standard/switch,f,j,A,33,140,26.14711175410772,43.96860584938808,f,1,1.5006396000098905,1,19,A
13,9,standard/switch,f,j,A,17,113,-5.541832691,31.07890857909637,j,0,1.3495077000115998,1,20,B
13,17,standard/switch,f,j,B,33,57,26.21866752665977,-14.79865055,j,1,0.8831777999876067,2,21,B
13,2,standard/switch,f,j,A,10,57,-24.53495333,-12.0763604,j,0,1.6137850000231992,2,22,B
13,10,standard/switch,f,j,A,17,140,-1.732665378,46.70107673091564,f,1,3.232471200026339,2,23,A
13,18,standard/switch,f,j,B,33,85,26.821232143487904,6.976824754974014,j,1,2.098739700013539,2,24,B
13,6,standard/switch,f,j,B,17,30,-3.854444584,-37.8392214,f,0,2.0275201999756973,2,25,A
13,11,standard/switch,f,j,B,25,30,13.264524555129096,-38.2203846,j,1,1.212459399976069,2,26,B
13,9,standard/switch,f,j,A,17,113,-5.541832691,31.07890857909637,f,1,1.2090000000025611,2,27,A
13,15,standard/switch,f,j,A,25,140,12.129448921922751,51.77476957,f,1,0.7743235999951139,2,28,A
13,23,standard/switch,f,j,B,40,85,38.21996555398914,5.057706707981728,j,1,1.7397444999951404,2,29,B
13,20,standard/switch,f,j,A,33,140,26.14711175410772,43.96860584938808,f,1,3.4576885999995284,2,30,A
13,24,standard/switch,f,j,B,40,113,37.71162000489743,24.31290640287821,f,0,1.497827099985443,2,31,A
13,22,standard/switch,f,j,B,40,57,41.88083319458841,-14.98800492,j,1,3.4258905999886338,2,32,B
13,8,standard/switch,f,j,A,17,85,-8.995342757,8.387433417892344,f,1,2.539996700012125,2,33,A
13,16,standard/switch,f,j,B,33,30,30.19684495481618,-38.42373928,j,1,1.1135213999950793,2,34,B
13,12,standard/switch,f,j,B,25,57,9.177647168036223,-16.07892918,j,1,1.8910799000004772,2,35,B
13,4,standard/switch,f,j,A,10,113,-23.83479794,30.479004461502832,f,1,1.7950454999809151,2,36,A
13,3,standard/switch,f,j,A,10,85,-26.47077232,11.92758930596587,f,1,2.327631899999687,2,37,A
13,5,standard/switch,f,j,A,10,140,-16.71390068,50.111230393533226,f,1,1.9420441000256687,2,38,A
13,21,standard/switch,f,j,B,40,30,45.13982813678688,-35.30081098,j,1,1.108632600022247,2,39,B
13,14,standard/switch,f,j,A,25,113,8.045214428,27.52140038259675,f,1,3.885016900021583,2,40,A
13,14,standard/switch,f,j,A,25,113,8.045214428,27.52140038259675,f,1,2.1415437000105157,3,41,A
13,9,standard/switch,f,j,A,17,113,-5.541832691,31.07890857909637,f,1,1.7551629999943543,3,42,A
13,17,standard/switch,f,j,B,33,57,26.21866752665977,-14.79865055,j,1,1.0492831000010483,3,43,B
13,2,standard/switch,f,j,A,10,57,-24.53495333,-12.0763604,j,0,0.8922724000003655,3,44,B
13,22,standard/switch,f,j,B,40,57,41.88083319458841,-14.98800492,j,1,3.901040099997772,3,45,B
13,11,standard/switch,f,j,B,25,30,13.264524555129096,-38.2203846,j,1,0.971181400003843,3,46,B
13,4,standard/switch,f,j,A,10,113,-23.83479794,30.479004461502832,f,1,2.073678100015968,3,47,A
13,8,standard/switch,f,j,A,17,85,-8.995342757,8.387433417892344,j,0,3.7934230999962897,3,48,B
13,3,standard/switch,f,j,A,10,85,-26.47077232,11.92758930596587,f,1,4.012904300005175,3,49,A
13,18,standard/switch,f,j,B,33,85,26.821232143487904,6.976824754974014,j,1,3.279575000022305,3,50,B
13,12,standard/switch,f,j,B,25,57,9.177647168036223,-16.07892918,j,1,1.8553664999781176,3,51,B
13,5,standard/switch,f,j,A,10,140,-16.71390068,50.111230393533226,f,1,1.687720599991735,3,52,A
13,6,standard/switch,f,j,B,17,30,-3.854444584,-37.8392214,j,1,1.9284280000138097,3,53,B
13,16,standard/switch,f,j,B,33,30,30.19684495481618,-38.42373928,j,1,1.4562401000002865,3,54,B
13,20,standard/switch,f,j,A,33,140,26.14711175410772,43.96860584938808,f,1,0.914869500003988,3,55,A
13,15,standard/switch,f,j,A,25,140,12.129448921922751,51.77476957,f,1,2.1305210999853443,3,56,A
13,24,standard/switch,f,j,B,40,113,37.71162000489743,24.31290640287821,j,1,1.8987071000155993,3,57,B
13,23,standard/switch,f,j,B,40,85,38.21996555398914,5.057706707981728,j,1,0.993426900007762,3,58,B
13,10,standard/switch,f,j,A,17,140,-1.732665378,46.70107673091564,f,1,0.8150079000042751,3,59,A
13,21,standard/switch,f,j,B,40,30,45.13982813678688,-35.30081098,j,1,0.8996466999815311,3,60,B
13,5,standard/switch,f,j,A,10,140,-16.71390068,50.111230393533226,f,1,1.4614226999983655,4,61,A
13,11,standard/switch,f,j,B,25,30,13.264524555129096,-38.2203846,j,1,0.7906828999985009,4,62,B
13,14,standard/switch,f,j,A,25,113,8.045214428,27.52140038259675,f,1,2.748464400006924,4,63,A
13,16,standard/switch,f,j,B,33,30,30.19684495481618,-38.42373928,j,1,0.7305207000172231,4,64,B
13,9,standard/switch,f,j,A,17,113,-5.541832691,31.07890857909637,f,1,1.2669086000241805,4,65,A
13,24,standard/switch,f,j,B,40,113,37.71162000489743,24.31290640287821,f,0,4.012364000023808,4,66,A
13,18,standard/switch,f,j,B,33,85,26.821232143487904,6.976824754974014,j,1,1.1021245000010822,4,67,B
13,10,standard/switch,f,j,A,17,140,-1.732665378,46.70107673091564,f,1,2.5032078999793157,4,68,A
13,23,standard/switch,f,j,B,40,85,38.21996555398914,5.057706707981728,j,1,0.7257735000166576,4,69,B
13,21,standard/switch,f,j,B,40,30,45.13982813678688,-35.30081098,j,1,0.8139081000117585,4,70,B
13,15,standard/switch,f,j,A,25,140,12.129448921922751,51.77476957,f,1,0.7151353000081144,4,71,A
13,22,standard/switch,f,j,B,40,57,41.88083319458841,-14.98800492,j,1,0.8912798999808729,4,72,B
13,4,standard/switch,f,j,A,10,113,-23.83479794,30.479004461502832,f,1,1.6043498999788426,4,73,A
13,3,standard/switch,f,j,A,10,85,-26.47077232,11.92758930596587,j,0,1.5131942000007257,4,74,B
13,8,standard/switch,f,j,A,17,85,-8.995342757,8.387433417892344,j,0,1.1118826000019908,4,75,B
13,6,standard/switch,f,j,B,17,30,-3.854444584,-37.8392214,j,1,1.3917282999900635,4,76,B
13,17,standard/switch,f,j,B,33,57,26.21866752665977,-14.79865055,j,1,0.7810192999895662,4,77,B
13,20,standard/switch,f,j,A,33,140,26.14711175410772,43.96860584938808,f,1,0.916576299990993,4,78,A
13,12,standard/switch,f,j,B,25,57,9.177647168036223,-16.07892918,j,1,1.0757301999838091,4,79,B
13,2,standard/switch,f,j,A,10,57,-24.53495333,-12.0763604,j,0,1.0541874000045937,4,80,B
13,4,standard/switch,f,j,A,10,113,-23.83479794,30.479004461502832,f,1,8.597858399996767,5,81,A
13,11,standard/switch,f,j,B,25,30,13.264524555129096,-38.2203846,j,1,0.989121399994474,5,82,B
13,17,standard/switch,f,j,B,33,57,26.21866752665977,-14.79865055,j,1,1.0905191999918316,5,83,B
13,16,standard/switch,f,j,B,33,30,30.19684495481618,-38.42373928,j,1,0.7563690999813844,5,84,B
13,22,standard/switch,f,j,B,40,57,41.88083319458841,-14.98800492,j,1,0.730492000002414,5,85,B
13,6,standard/switch,f,j,B,17,30,-3.854444584,-37.8392214,j,1,0.6556361000111792,5,86,B
13,23,standard/switch,f,j,B,40,85,38.21996555398914,5.057706707981728,j,1,0.962330700014718,5,87,B
13,14,standard/switch,f,j,A,25,113,8.045214428,27.52140038259675,f,1,1.5855351999925915,5,88,A
13,3,standard/switch,f,j,A,10,85,-26.47077232,11.92758930596587,j,0,1.99018610001076,5,89,B
13,5,standard/switch,f,j,A,10,140,-16.71390068,50.111230393533226,j,0,1.0177237000025343,5,90,B
13,20,standard/switch,f,j,A,33,140,26.14711175410772,43.96860584938808,f,1,1.4130769000039436,5,91,A
13,21,standard/switch,f,j,B,40,30,45.13982813678688,-35.30081098,j,1,0.7934156999981496,5,92,B
13,2,standard/switch,f,j,A,10,57,-24.53495333,-12.0763604,j,0,2.102742000017315,5,93,B
13,9,standard/switch,f,j,A,17,113,-5.541832691,31.07890857909637,f,1,2.1174868999805767,5,94,A
13,12,standard/switch,f,j,B,25,57,9.177647168036223,-16.07892918,j,1,1.317328000004636,5,95,B
13,10,standard/switch,f,j,A,17,140,-1.732665378,46.70107673091564,f,1,2.765974800015101,5,96,A
13,18,standard/switch,f,j,B,33,85,26.821232143487904,6.976824754974014,j,1,1.4749849999789149,5,97,B
13,8,standard/switch,f,j,A,17,85,-8.995342757,8.387433417892344,j,0,0.9320991999993566,5,98,B
13,15,standard/switch,f,j,A,25,140,12.129448921922751,51.77476957,f,1,2.299403400014853,5,99,A
13,24,standard/switch,f,j,B,40,113,37.71162000489743,24.31290640287821,j,1,1.1162346999917645,5,100,B
14,16,switch/standard,j,f,B,33,30,30.19684495481618,-38.42373928,j,0,2.685853500035591,1,1,A
14,18,switch/standard,j,f,B,33,85,26.821232143487904,6.976824754974014,j,0,3.540347300004214,1,2,A
14,4,switch/standard,j,f,A,10,113,-23.83479794,30.479004461502832,f,0,2.0810141999972984,1,3,B
14,15,switch/standard,j,f,A,25,140,12.129448921922751,51.77476957,j,1,2.7206990999984555,1,4,A
14,5,switch/standard,j,f,A,10,140,-16.71390068,50.111230393533226,j,1,1.8796774999937045,1,5,A
14,3,switch/standard,j,f,A,10,85,-26.47077232,11.92758930596587,f,0,1.657051699992735,1,6,B
14,6,switch/standard,j,f,B,17,30,-3.854444584,-37.8392214,f,1,1.185753699974157,1,7,B
14,12,switch/standard,j,f,B,25,57,9.177647168036223,-16.07892918,f,1,5.75938689999748,1,8,B
14,9,switch/standard,j,f,A,17,113,-5.541832691,31.07890857909637,j,1,1.1214006000082009,1,9,A
14,14,switch/standard,j,f,A,25,113,8.045214428,27.52140038259675,j,1,1.832855099986773,1,10,A
14,20,switch/standard,j,f,A,33,140,26.14711175410772,43.96860584938808,j,1,1.9400852999533529,1,11,A
14,11,switch/standard,j,f,B,25,30,13.264524555129096,-38.2203846,f,1,1.0265905000269413,1,12,B
14,10,switch/standard,j,f,A,17,140,-1.732665378,46.70107673091564,j,1,0.7742640000069514,1,13,A
14,8,switch/standard,j,f,A,17,85,-8.995342757,8.387433417892344,j,1,1.4931673999526538,1,14,A
14,22,switch/standard,j,f,B,40,57,41.88083319458841,-14.98800492,f,1,0.7889026000048034,1,15,B
14,21,switch/standard,j,f,B,40,30,45.13982813678688,-35.30081098,j,0,0.7627351999981329,1,16,A
14,23,switch/standard,j,f,B,40,85,38.21996555398914,5.057706707981728,f,1,1.0806982000358405,1,17,B
14,24,switch/standard,j,f,B,40,113,37.71162000489743,24.31290640287821,f,1,5.5308938000234775,1,18,B
14,17,switch/standard,j,f,B,33,57,26.21866752665977,-14.79865055,f,1,0.7114051000098698,1,19,B
14,2,switch/standard,j,f,A,10,57,-24.53495333,-12.0763604,j,1,5.279779900040012,1,20,A
14,24,switch/standard,j,f,B,40,113,37.71162000489743,24.31290640287821,j,0,7.286047599976882,2,21,A
14,2,switch/standard,j,f,A,10,57,-24.53495333,-12.0763604,j,1,2.5380414000246674,2,22,A
14,23,switch/standard,j,f,B,40,85,38.21996555398914,5.057706707981728,f,1,1.7437722000177018,2,23,B
14,18,switch/standard,j,f,B,33,85,26.821232143487904,6.976824754974014,f,1,2.11094939999748,2,24,B
14,15,switch/standard,j,f,A,25,140,12.129448921922751,51.77476957,j,1,0.9588098999811336,2,25,A
14,14,switch/standard,j,f,A,25,113,8.045214428,27.52140038259675,f,0,1.6694669999997132,2,26,B
14,4,switch/standard,j,f,A,10,113,-23.83479794,30.479004461502832,j,1,2.3425966000068,2,27,A
14,5,switch/standard,j,f,A,10,140,-16.71390068,50.111230393533226,j,1,3.299778500047978,2,28,A
14,16,switch/standard,j,f,B,33,30,30.19684495481618,-38.42373928,f,1,0.8123051999718882,2,29,B
14,11,switch/standard,j,f,B,25,30,13.264524555129096,-38.2203846,f,1,1.1932852000463754,2,30,B
14,6,switch/standard,j,f,B,17,30,-3.854444584,-37.8392214,f,1,1.477862300002016,2,31,B
14,8,switch/standard,j,f,A,17,85,-8.995342757,8.387433417892344,j,1,9.805963599996176,2,32,A
14,9,switch/standard,j,f,A,17,113,-5.541832691,31.07890857909637,j,1,0.8853200000012293,2,33,A
14,17,switch/standard,j,f,B,33,57,26.21866752665977,-14.79865055,f,1,0.6858743000193499,2,34,B
14,12,switch/standard,j,f,B,25,57,9.177647168036223,-16.07892918,f,1,1.61572659999365,2,35,B
14,22,switch/standard,j,f,B,40,57,41.88083319458841,-14.98800492,f,1,1.9647845000145023,2,36,B
14,3,switch/standard,j,f,A,10,85,-26.47077232,11.92758930596587,f,0,0.8842573000001721,2,37,B
14,20,switch/standard,j,f,A,33,140,26.14711175410772,43.96860584938808,j,1,4.594719699991401,2,38,A
14,10,switch/standard,j,f,A,17,140,-1.732665378,46.70107673091564,j,1,1.908831899985671,2,39,A
14,21,switch/standard,j,f,B,40,30,45.13982813678688,-35.30081098,f,1,1.4213001999887638,2,40,B
14,20,switch/standard,j,f,A,33,140,26.14711175410772,43.96860584938808,j,1,10.072585500020068,3,41,A
14,14,switch/standard,j,f,A,25,113,8.045214428,27.52140038259675,j,1,11.07578229997307,3,42,A
14,15,switch/standard,j,f,A,25,140,12.129448921922751,51.77476957,j,1,1.0375349000096321,3,43,A
14,6,switch/standard,j,f,B,17,30,-3.854444584,-37.8392214,f,1,0.9215078999986872,3,44,B
14,16,switch/standard,j,f,B,33,30,30.19684495481618,-38.42373928,f,1,2.5286575999925844,3,45,B
14,12,switch/standard,j,f,B,25,57,9.177647168036223,-16.07892918,f,1,1.5997393999714404,3,46,B
14,17,switch/standard,j,f,B,33,57,26.21866752665977,-14.79865055,f,1,0.8034463999792933,3,47,B
14,10,switch/standard,j,f,A,17,140,-1.732665378,46.70107673091564,j,1,1.9529699999839067,3,48,A
14,2,switch/standard,j,f,A,10,57,-24.53495333,-12.0763604,f,0,1.8306263000122271,3,49,B
14,22,switch/standard,j,f,B,40,57,41.88083319458841,-14.98800492,f,1,0.9932863999856636,3,50,B
14,3,switch/standard,j,f,A,10,85,-26.47077232,11.92758930596587,j,1,2.3500806000083685,3,51,A
14,23,switch/standard,j,f,B,40,85,38.21996555398914,5.057706707981728,f,1,1.5243160999962129,3,52,B
14,4,switch/standard,j,f,A,10,113,-23.83479794,30.479004461502832,j,1,0.8131807000027038,3,53,A
14,18,switch/standard,j,f,B,33,85,26.821232143487904,6.976824754974014,f,1,1.7692831000313165,3,54,B
14,8,switch/standard,j,f,A,17,85,-8.995342757,8.387433417892344,j,1,0.7248964000027627,3,55,A
14,21,switch/standard,j,f,B,40,30,45.13982813678688,-35.30081098,f,1,0.6470211000414565,3,56,B
14,5,switch/standard,j,f,A,10,140,-16.71390068,50.111230393533226,j,1,0.9849422000115736,3,57,A
14,11,switch/standard,j,f,B,25,30,13.264524555129096,-38.2203846,f,1,0.6639278999646194,3,58,B
14,24,switch/standard,j,f,B,40,113,37.71162000489743,24.31290640287821,f,1,4.682297400024254,3,59,B
14,9,switch/standard,j,f,A,17,113,-5.541832691,31.07890857909637,j,1,1.7141604000353254,3,60,A
14,2,switch/standard,j,f,A,10,57,-24.53495333,-12.0763604,j,1,1.9534561000182291,4,61,A
14,10,switch/standard,j,f,A,17,140,-1.732665378,46.70107673091564,j,1,1.0395819999976084,4,62,A
14,9,switch/standard,j,f,A,17,113,-5.541832691,31.07890857909637,j,1,0.8190371000091545,4,63,A
14,17,switch/standard,j,f,B,33,57,26.21866752665977,-14.79865055,f,1,0.622592400002759,4,64,B
14,16,switch/standard,j,f,B,33,30,30.19684495481618,-38.42373928,f,1,0.676764199975878,4,65,B
14,21,switch/standard,j,f,B,40,30,45.13982813678688,-35.30081098,f,1,0.6849514000350609,4,66,B
14,8,switch/standard,j,f,A,17,85,-8.995342757,8.387433417892344,j,1,2.981977399962489,4,67,A
14,14,switch/standard,j,f,A,25,113,8.045214428,27.52140038259675,j,1,1.3214126000530086,4,68,A
14,5,switch/standard,j,f,A,10,140,-16.71390068,50.111230393533226,j,1,1.073414899990894,4,69,A
14,6,switch/standard,j,f,B,17,30,-3.854444584,-37.8392214,f,1,0.6742996000102721,4,70,B
14,3,switch/standard,j,f,A,10,85,-26.47077232,11.92758930596587,j,1,0.9970486999955028,4,71,A
14,4,switch/standard,j,f,A,10,113,-23.83479794,30.479004461502832,j,1,0.8896768999984488,4,72,A
14,20,switch/standard,j,f,A,33,140,26.14711175410772,43.96860584938808,j,1,0.834770200017374,4,73,A
14,24,switch/standard,j,f,B,40,113,37.71162000489743,24.31290640287821,f,1,2.141856700007338,4,74,B
14,22,switch/standard,j,f,B,40,57,41.88083319458841,-14.98800492,f,1,0.6609055000008084,4,75,B
14,11,switch/standard,j,f,B,25,30,13.264524555129096,-38.2203846,f,1,0.6395531999878585,4,76,B
14,18,switch/standard,j,f,B,33,85,26.821232143487904,6.976824754974014,f,1,0.7618509000167251,4,77,B
14,23,switch/standard,j,f,B,40,85,38.21996555398914,5.057706707981728,f,1,0.5767013999866322,4,78,B
14,15,switch/standard,j,f,A,25,140,12.129448921922751,51.77476957,j,1,0.7031520000309683,4,79,A
14,12,switch/standard,j,f,B,25,57,9.177647168036223,-16.07892918,f,1,0.5116583000053652,4,80,B
14,9,switch/standard,j,f,A,17,113,-5.541832691,31.07890857909637,j,1,2.6086907999706455,5,81,A
14,10,switch/standard,j,f,A,17,140,-1.732665378,46.70107673091564,j,1,0.5881185999605805,5,82,A
14,18,switch/standard,j,f,B,33,85,26.821232143487904,6.976824754974014,f,1,0.514768999943044,5,83,B
14,16,switch/standard,j,f,B,33,30,30.19684495481618,-38.42373928,f,1,0.6106631000293419,5,84,B
14,12,switch/standard,j,f,B,25,57,9.177647168036223,-16.07892918,f,1,0.5756543999887072,5,85,B
14,14,switch/standard,j,f,A,25,113,8.045214428,27.52140038259675,j,1,0.6939258999773301,5,86,A
14,4,switch/standard,j,f,A,10,113,-23.83479794,30.479004461502832,j,1,0.6128249000175856,5,87,A
14,2,switch/standard,j,f,A,10,57,-24.53495333,-12.0763604,j,1,3.7778114000102505,5,88,A
14,8,switch/standard,j,f,A,17,85,-8.995342757,8.387433417892344,j,1,1.1733884999994189,5,89,A
14,11,switch/standard,j,f,B,25,30,13.264524555129096,-38.2203846,f,1,0.6514667000155896,5,90,B
14,23,switch/standard,j,f,B,40,85,38.21996555398914,5.057706707981728,f,1,0.9100866999942808,5,91,B
14,24,switch/standard,j,f,B,40,113,37.71162000489743,24.31290640287821,f,1,2.693630199995823,5,92,B
14,15,switch/standard,j,f,A,25,140,12.129448921922751,51.77476957,j,1,0.7412601999822073,5,93,A
14,3,switch/standard,j,f,A,10,85,-26.47077232,11.92758930596587,j,1,4.157321400009096,5,94,A
14,6,switch/standard,j,f,B,17,30,-3.854444584,-37.8392214,f,1,0.6808662000112236,5,95,B
14,17,switch/standard,j,f,B,33,57,26.21866752665977,-14.79865055,f,1,5.187648299965076,5,96,B
14,21,switch/standard,j,f,B,40,30,45.13982813678688,-35.30081098,f,1,0.6298417000216432,5,97,B
14,20,switch/standard,j,f,A,33,140,26.14711175410772,43.96860584938808,j,1,11.313475799979642,5,98,A
14,22,switch/standard,j,f,B,40,57,41.88083319458841,-14.98800492,f,1,1.0911714000394568,5,99,B
14,5,switch/standard,j,f,A,10,140,-16.71390068,50.111230393533226,j,1,0.715423199988436,5,100,A
15,4,standard/switch,f,j,A,10,113,-23.83479794,30.479004461502832,f,1,5.346609300002456,1,1,A
15,11,standard/switch,f,j,B,25,30,13.264524555129096,-38.2203846,j,1,1.6383432000293396,1,2,B
15,6,standard/switch,f,j,B,17,30,-3.854444584,-37.8392214,j,1,1.0247701000189409,1,3,B
15,8,standard/switch,f,j,A,17,85,-8.995342757,8.387433417892344,f,1,2.188761400000658,1,4,A
15,18,standard/switch,f,j,B,33,85,26.821232143487904,6.976824754974014,f,0,2.0173224000027403,1,5,A
15,9,standard/switch,f,j,A,17,113,-5.541832691,31.07890857909637,f,1,2.859729400021024,1,6,A
15,21,standard/switch,f,j,B,40,30,45.13982813678688,-35.30081098,j,1,1.1737006999901496,1,7,B
15,10,standard/switch,f,j,A,17,140,-1.732665378,46.70107673091564,f,1,1.5781414000084624,1,8,A
15,17,standard/switch,f,j,B,33,57,26.21866752665977,-14.79865055,j,1,1.151299300021492,1,9,B
15,5,standard/switch,f,j,A,10,140,-16.71390068,50.111230393533226,f,1,1.1908045999589376,1,10,A
15,24,standard/switch,f,j,B,40,113,37.71162000489743,24.31290640287821,j,1,1.0270724999718368,1,11,B
15,22,standard/switch,f,j,B,40,57,41.88083319458841,-14.98800492,j,1,1.5192401999956928,1,12,B
15,14,standard/switch,f,j,A,25,113,8.045214428,27.52140038259675,f,1,2.407554199977312,1,13,A
15,16,standard/switch,f,j,B,33,30,30.19684495481618,-38.42373928,j,1,1.5622098000021651,1,14,B
15,12,standard/switch,f,j,B,25,57,9.177647168036223,-16.07892918,j,1,3.608987300016451,1,15,B
15,3,standard/switch,f,j,A,10,85,-26.47077232,11.92758930596587,f,1,1.1390176999848336,1,16,A
15,20,standard/switch,f,j,A,33,140,26.14711175410772,43.96860584938808,j,0,2.2653647999977693,1,17,B
15,15,standard/switch,f,j,A,25,140,12.129448921922751,51.77476957,f,1,1.3055405999766665,1,18,A
15,23,standard/switch,f,j,B,40,85,38.21996555398914,5.057706707981728,j,1,1.0021977999713272,1,19,B
15,2,standard/switch,f,j,A,10,57,-24.53495333,-12.0763604,j,0,1.1668239999562502,1,20,B
15,16,standard/switch,f,j,B,33,30,30.19684495481618,-38.42373928,j,1,1.2513284999877214,2,21,B
15,22,standard/switch,f,j,B,40,57,41.88083319458841,-14.98800492,j,1,2.781788099964615,2,22,B
15,4,standard/switch,f,j,A,10,113,-23.83479794,30.479004461502832,f,1,0.7308988000149839,2,23,A
15,11,standard/switch,f,j,B,25,30,13.264524555129096,-38.2203846,j,1,0.8516595000401139,2,24,B
15,10,standard/switch,f,j,A,17,140,-1.732665378,46.70107673091564,f,1,2.349747300031595,2,25,A
15,8,standard/switch,f,j,A,17,85,-8.995342757,8.387433417892344,j,0,7.236606699996628,2,26,B
15,3,standard/switch,f,j,A,10,85,-26.47077232,11.92758930596587,f,1,1.4816886000335217,2,27,A
15,12,standard/switch,f,j,B,25,57,9.177647168036223,-16.07892918,j,1,2.2826771000400186,2,28,B
15,17,standard/switch,f,j,B,33,57,26.21866752665977,-14.79865055,j,1,0.6920241999905556,2,29,B
15,14,standard/switch,f,j,A,25,113,8.045214428,27.52140038259675,f,1,5.078265499963891,2,30,A
15,9,standard/switch,f,j,A,17,113,-5.541832691,31.07890857909637,f,1,0.9168078000075184,2,31,A
15,24,standard/switch,f,j,B,40,113,37.71162000489743,24.31290640287821,j,1,2.7489352999837138,2,32,B
15,18,standard/switch,f,j,B,33,85,26.821232143487904,6.976824754974014,j,1,2.779010099999141,2,33,B
15,6,standard/switch,f,j,B,17,30,-3.854444584,-37.8392214,j,1,0.7769383999984711,2,34,B
15,23,standard/switch,f,j,B,40,85,38.21996555398914,5.057706707981728,j,1,1.2052694999729283,2,35,B
15,21,standard/switch,f,j,B,40,30,45.13982813678688,-35.30081098,j,1,0.9620726999710314,2,36,B
15,2,standard/switch,f,j,A,10,57,-24.53495333,-12.0763604,f,1,2.1204508999944665,2,37,A
15,15,standard/switch,f,j,A,25,140,12.129448921922751,51.77476957,f,1,4.223605800012592,2,38,A
15,5,standard/switch,f,j,A,10,140,-16.71390068,50.111230393533226,f,1,0.8568863000255078,2,39,A
15,20,standard/switch,f,j,A,33,140,26.14711175410772,43.96860584938808,f,1,3.284101400000509,2,40,A
15,3,standard/switch,f,j,A,10,85,-26.47077232,11.92758930596587,f,1,3.8523461999720894,3,41,A
15,20,standard/switch,f,j,A,33,140,26.14711175410772,43.96860584938808,f,1,1.891919800022151,3,42,A
15,22,standard/switch,f,j,B,40,57,41.88083319458841,-14.98800492,j,1,0.9261774999904446,3,43,B
15,4,standard/switch,f,j,A,10,113,-23.83479794,30.479004461502832,f,1,3.1251568000297993,3,44,A
15,15,standard/switch,f,j,A,25,140,12.129448921922751,51.77476957,f,1,2.2755368999787606,3,45,A
15,10,standard/switch,f,j,A,17,140,-1.732665378,46.70107673091564,f,1,0.5005201000021771,3,46,A
15,2,standard/switch,f,j,A,10,57,-24.53495333,-12.0763604,j,0,0.6696766999666579,3,47,B
15,18,standard/switch,f,j,B,33,85,26.821232143487904,6.976824754974014,j,1,1.9512418000376783,3,48,B
15,6,standard/switch,f,j,B,17,30,-3.854444584,-37.8392214,f,0,3.533522100013215,3,49,A
15,11,standard/switch,f,j,B,25,30,13.264524555129096,-38.2203846,j,1,0.922309599991422,3,50,B
15,17,standard/switch,f,j,B,33,57,26.21866752665977,-14.79865055,j,1,3.298765799961984,3,51,B
15,14,standard/switch,f,j,A,25,113,8.045214428,27.52140038259675,f,1,1.5606351000024006,3,52,A
15,8,standard/switch,f,j,A,17,85,-8.995342757,8.387433417892344,f,1,6.095948800037149,3,53,A
15,24,standard/switch,f,j,B,40,113,37.71162000489743,24.31290640287821,j,1,1.172616099996958,3,54,B
15,21,standard/switch,f,j,B,40,30,45.13982813678688,-35.30081098,j,1,1.154105699970387,3,55,B
15,12,standard/switch,f,j,B,25,57,9.177647168036223,-16.07892918,j,1,3.7054818000178784,3,56,B
15,16,standard/switch,f,j,B,33,30,30.19684495481618,-38.42373928,j,1,0.6161664000246674,3,57,B
15,5,standard/switch,f,j,A,10,140,-16.71390068,50.111230393533226,f,1,0.6119901000056416,3,58,A
15,9,standard/switch,f,j,A,17,113,-5.541832691,31.07890857909637,f,1,0.5211058999993838,3,59,A
15,23,standard/switch,f,j,B,40,85,38.21996555398914,5.057706707981728,j,1,0.7446596999652684,3,60,B
15,11,standard/switch,f,j,B,25,30,13.264524555129096,-38.2203846,j,1,0.5606548999785446,4,61,B
15,18,standard/switch,f,j,B,33,85,26.821232143487904,6.976824754974014,j,1,1.4470124999643303,4,62,B
15,24,standard/switch,f,j,B,40,113,37.71162000489743,24.31290640287821,j,1,1.961770499998238,4,63,B
15,15,standard/switch,f,j,A,25,140,12.129448921922751,51.77476957,f,1,4.367641200020444,4,64,A
15,22,standard/switch,f,j,B,40,57,41.88083319458841,-14.98800492,j,1,0.7876685000373982,4,65,B
15,12,standard/switch,f,j,B,25,57,9.177647168036223,-16.07892918,j,1,0.8250579999876209,4,66,B
15,6,standard/switch,f,j,B,17,30,-3.854444584,-37.8392214,j,1,5.341277300030924,4,67,B
15,3,standard/switch,f,j,A,10,85,-26.47077232,11.92758930596587,f,1,5.232597200025339,4,68,A
15,8,standard/switch,f,j,A,17,85,-8.995342757,8.387433417892344,j,0,2.9302633000188507,4,69,B
15,21,standard/switch,f,j,B,40,30,45.13982813678688,-35.30081098,j,1,2.2398514000233263,4,70,B
15,2,standard/switch,f,j,A,10,57,-24.53495333,-12.0763604,f,1,1.3312901000026611,4,71,A
15,4,standard/switch,f,j,A,10,113,-23.83479794,30.479004461502832,f,1,0.8813315000152215,4,72,A
15,16,standard/switch,f,j,B,33,30,30.19684495481618,-38.42373928,j,1,0.6031902999966405,4,73,B
15,17,standard/switch,f,j,B,33,57,26.21866752665977,-14.79865055,j,1,0.9283157999743707,4,74,B
15,10,standard/switch,f,j,A,17,140,-1.732665378,46.70107673091564,f,1,0.6878700000233948,4,75,A
15,20,standard/switch,f,j,A,33,140,26.14711175410772,43.96860584938808,f,1,0.8657348999986425,4,76,A
15,9,standard/switch,f,j,A,17,113,-5.541832691,31.07890857909637,f,1,1.4202526000444775,4,77,A
15,14,standard/switch,f,j,A,25,113,8.045214428,27.52140038259675,f,1,1.2710939000244252,4,78,A
15,5,standard/switch,f,j,A,10,140,-16.71390068,50.111230393533226,f,1,0.7056311999913305,4,79,A
15,23,standard/switch,f,j,B,40,85,38.21996555398914,5.057706707981728,j,1,2.953587499971036,4,80,B
15,22,standard/switch,f,j,B,40,57,41.88083319458841,-14.98800492,j,1,0.8714874999714084,5,81,B
15,15,standard/switch,f,j,A,25,140,12.129448921922751,51.77476957,f,1,0.9054309999919496,5,82,A
15,17,standard/switch,f,j,B,33,57,26.21866752665977,-14.79865055,j,1,0.8657185999909416,5,83,B
15,18,standard/switch,f,j,B,33,85,26.821232143487904,6.976824754974014,j,1,2.2443665000027977,5,84,B
15,16,standard/switch,f,j,B,33,30,30.19684495481618,-38.42373928,j,1,0.5497766999760643,5,85,B
15,6,standard/switch,f,j,B,17,30,-3.854444584,-37.8392214,j,1,0.5020355999586172,5,86,B
15,12,standard/switch,f,j,B,25,57,9.177647168036223,-16.07892918,j,1,3.5508107999921776,5,87,B
15,2,standard/switch,f,j,A,10,57,-24.53495333,-12.0763604,j,0,0.7479477999731898,5,88,B
15,20,standard/switch,f,j,A,33,140,26.14711175410772,43.96860584938808,f,1,0.6269000000320375,5,89,A
15,5,standard/switch,f,j,A,10,140,-16.71390068,50.111230393533226,f,1,0.5021359999664128,5,90,A
15,21,standard/switch,f,j,B,40,30,45.13982813678688,-35.30081098,j,1,0.951432699977886,5,91,B
15,24,standard/switch,f,j,B,40,113,37.71162000489743,24.31290640287821,f,0,1.550220899982378,5,92,A
15,4,standard/switch,f,j,A,10,113,-23.83479794,30.479004461502832,f,1,0.5966639000107534,5,93,A
15,8,standard/switch,f,j,A,17,85,-8.995342757,8.387433417892344,f,1,1.7220333999721331,5,94,A
15,3,standard/switch,f,j,A,10,85,-26.47077232,11.92758930596587,f,1,0.46555389999412,5,95,A
15,23,standard/switch,f,j,B,40,85,38.21996555398914,5.057706707981728,j,1,0.916023799974937,5,96,B
15,9,standard/switch,f,j,A,17,113,-5.541832691,31.07890857909637,f,1,2.332541999989189,5,97,A
15,11,standard/switch,f,j,B,25,30,13.264524555129096,-38.2203846,j,1,0.6995952000143006,5,98,B
15,14,standard/switch,f,j,A,25,113,8.045214428,27.52140038259675,f,1,4.580978999962099,5,99,A
15,10,standard/switch,f,j,A,17,140,-1.732665378,46.70107673091564,f,1,0.6243170999805443,5,100,A
16,14,switch/standard,j,f,A,25,113,8.045214428,27.52140038259675,f,0,2.2364279000321403,1,1,B
16,21,switch/standard,j,f,B,40,30,45.13982813678688,-35.30081098,f,1,1.0429135999875143,1,2,B
16,2,switch/standard,j,f,A,10,57,-24.53495333,-12.0763604,j,1,3.932915600016713,1,3,A
16,16,switch/standard,j,f,B,33,30,30.19684495481618,-38.42373928,f,1,0.938619300024584,1,4,B
16,10,switch/standard,j,f,A,17,140,-1.732665378,46.70107673091564,j,1,2.2266420999658294,1,5,A
16,3,switch/standard,j,f,A,10,85,-26.47077232,11.92758930596587,j,1,0.8611051999614574,1,6,A
16,8,switch/standard,j,f,A,17,85,-8.995342757,8.387433417892344,j,1,0.6169380000210367,1,7,A
16,5,switch/standard,j,f,A,10,140,-16.71390068,50.111230393533226,j,1,0.509227300004568,1,8,A
16,17,switch/standard,j,f,B,33,57,26.21866752665977,-14.79865055,f,1,0.6466016999911517,1,9,B
16,24,switch/standard,j,f,B,40,113,37.71162000489743,24.31290640287821,f,1,0.9128436999744736,1,10,B
16,4,switch/standard,j,f,A,10,113,-23.83479794,30.479004461502832,j,1,1.361962000024505,1,11,A
16,18,switch/standard,j,f,B,33,85,26.821232143487904,6.976824754974014,f,1,0.6367642999975942,1,12,B
16,22,switch/standard,j,f,B,40,57,41.88083319458841,-14.98800492,f,1,1.228502899990417,1,13,B
16,9,switch/standard,j,f,A,17,113,-5.541832691,31.07890857909637,j,1,0.47879220003960654,1,14,A
16,6,switch/standard,j,f,B,17,30,-3.854444584,-37.8392214,f,1,0.5607676000217907,1,15,B
16,20,switch/standard,j,f,A,33,140,26.14711175410772,43.96860584938808,f,0,0.977262900036294,1,16,B
16,12,switch/standard,j,f,B,25,57,9.177647168036223,-16.07892918,j,0,0.7894020999665372,1,17,A
16,11,switch/standard,j,f,B,25,30,13.264524555129096,-38.2203846,f,1,0.8583332000416704,1,18,B
16,23,switch/standard,j,f,B,40,85,38.21996555398914,5.057706707981728,f,1,0.5892288999748416,1,19,B
16,15,switch/standard,j,f,A,25,140,12.129448921922751,51.77476957,j,1,0.6254723999882117,1,20,A
16,21,switch/standard,j,f,B,40,30,45.13982813678688,-35.30081098,f,1,0.5507560999831185,2,21,B
16,12,switch/standard,j,f,B,25,57,9.177647168036223,-16.07892918,f,1,1.0859141999972053,2,22,B
16,2,switch/standard,j,f,A,10,57,-24.53495333,-12.0763604,j,1,1.030120800016448,2,23,A
16,14,switch/standard,j,f,A,25,113,8.045214428,27.52140038259675,f,0,1.4659269000403583,2,24,B
16,20,switch/standard,j,f,A,33,140,26.14711175410772,43.96860584938808,j,1,1.012149700021837,2,25,A
16,22,switch/standard,j,f,B,40,57,41.88083319458841,-14.98800492,j,0,0.7602444000076503,2,26,A
16,10,switch/standard,j,f,A,17,140,-1.732665378,46.70107673091564,j,1,2.692837900016457,2,27,A
16,16,switch/standard,j,f,B,33,30,30.19684495481618,-38.42373928,f,1,0.9264306999975817,2,28,B
16,15,switch/standard,j,f,A,25,140,12.129448921922751,51.77476957,j,1,0.709732300019823,2,29,A
16,11,switch/standard,j,f,B,25,30,13.264524555129096,-38.2203846,f,1,0.5018344999989495,2,30,B
16,24,switch/standard,j,f,B,40,113,37.71162000489743,24.31290640287821,f,1,1.0310465999646112,2,31,B
16,9,switch/standard,j,f,A,17,113,-5.541832691,31.07890857909637,j,1,0.5551893999800086,2,32,A
16,3,switch/standard,j,f,A,10,85,-26.47077232,11.92758930596587,j,1,0.7623991000000387,2,33,A
16,4,switch/standard,j,f,A,10,113,-23.83479794,30.479004461502832,j,1,1.007652500004042,2,34,A
16,23,switch/standard,j,f,B,40,85,38.21996555398914,5.057706707981728,f,1,0.6288995000068098,2,35,B
16,5,switch/standard,j,f,A,10,140,-16.71390068,50.111230393533226,j,1,1.3850563000305556,2,36,A
16,18,switch/standard,j,f,B,33,85,26.821232143487904,6.976824754974014,f,1,1.0772681000526063,2,37,B
16,17,switch/standard,j,f,B,33,57,26.21866752665977,-14.79865055,f,1,1.046562500006985,2,38,B
16,8,switch/standard,j,f,A,17,85,-8.995342757,8.387433417892344,j,1,1.1780199999921024,2,39,A
16,6,switch/standard,j,f,B,17,30,-3.854444584,-37.8392214,j,0,0.7436342999571934,2,40,A
16,17,switch/standard,j,f,B,33,57,26.21866752665977,-14.79865055,f,1,0.93395719997352,3,41,B
16,3,switch/standard,j,f,A,10,85,-26.47077232,11.92758930596587,j,1,0.7022519999882206,3,42,A
16,5,switch/standard,j,f,A,10,140,-16.71390068,50.111230393533226,j,1,0.7825476999860257,3,43,A
16,8,switch/standard,j,f,A,17,85,-8.995342757,8.387433417892344,j,1,1.1469885999686085,3,44,A
16,10,switch/standard,j,f,A,17,140,-1.732665378,46.70107673091564,j,1,0.7320287000038661,3,45,A
16,9,switch/standard,j,f,A,17,113,-5.541832691,31.07890857909637,j,1,0.7477724999771453,3,46,A
16,22,switch/standard,j,f,B,40,57,41.88083319458841,-14.98800492,f,1,0.46730109996860847,3,47,B
16,20,switch/standard,j,f,A,33,140,26.14711175410772,43.96860584938808,j,1,0.6868704000371508,3,48,A
16,12,switch/standard,j,f,B,25,57,9.177647168036223,-16.07892918,f,1,0.5441421000286937,3,49,B
16,23,switch/standard,j,f,B,40,85,38.21996555398914,5.057706707981728,f,1,0.5592486000386998,3,50,B
16,16,switch/standard,j,f,B,33,30,30.19684495481618,-38.42373928,f,1,0.4545698000001721,3,51,B
16,6,switch/standard,j,f,B,17,30,-3.854444584,-37.8392214,f,1,0.6972167000058107,3,52,B
16,2,switch/standard,j,f,A,10,57,-24.53495333,-12.0763604,j,1,0.9646874999743886,3,53,A
16,15,switch/standard,j,f,A,25,140,12.129448921922751,51.77476957,j,1,0.6325321000185795,3,54,A
16,21,switch/standard,j,f,B,40,30,45.13982813678688,-35.30081098,f,1,0.5090002000215463,3,55,B
16,14,switch/standard,j,f,A,25,113,8.045214428,27.52140038259675,j,1,0.509313500020653,3,56,A
16,4,switch/standard,j,f,A,10,113,-23.83479794,30.479004461502832,j,1,0.5021077000419609,3,57,A
16,18,switch/standard,j,f,B,33,85,26.821232143487904,6.976824754974014,f,1,0.623504499963019,3,58,B
16,11,switch/standard,j,f,B,25,30,13.264524555129096,-38.2203846,f,1,0.571559400006663,3,59,B
16,24,switch/standard,j,f,B,40,113,37.71162000489743,24.31290640287821,f,1,0.8734917999827303,3,60,B
16,2,switch/standard,j,f,A,10,57,-24.53495333,-12.0763604,j,1,0.5797985999961384,4,61,A
16,20,switch/standard,j,f,A,33,140,26.14711175410772,43.96860584938808,j,1,0.7377134999842383,4,62,A
16,12,switch/standard,j,f,B,25,57,9.177647168036223,-16.07892918,f,1,0.4808295000111684,4,63,B
16,24,switch/standard,j,f,B,40,113,37.71162000489743,24.31290640287821,f,1,1.5226458000252023,4,64,B
16,21,switch/standard,j,f,B,40,30,45.13982813678688,-35.30081098,f,1,0.6189034999697469,4,65,B
16,9,switch/standard,j,f,A,17,113,-5.541832691,31.07890857909637,j,1,0.4781405999674462,4,66,A
16,16,switch/standard,j,f,B,33,30,30.19684495481618,-38.42373928,j,0,0.5136645999737084,4,67,A
16,5,switch/standard,j,f,A,10,140,-16.71390068,50.111230393533226,j,1,2.8081868000444956,4,68,A
16,11,switch/standard,j,f,B,25,30,13.264524555129096,-38.2203846,f,1,0.9807341999839992,4,69,B
16,3,switch/standard,j,f,A,10,85,-26.47077232,11.92758930596587,j,1,0.5620598000241444,4,70,A
16,14,switch/standard,j,f,A,25,113,8.045214428,27.52140038259675,j,1,0.5767051000148058,4,71,A
16,15,switch/standard,j,f,A,25,140,12.129448921922751,51.77476957,j,1,0.48660750000271946,4,72,A
16,8,switch/standard,j,f,A,17,85,-8.995342757,8.387433417892344,j,1,0.8487173999892548,4,73,A
16,22,switch/standard,j,f,B,40,57,41.88083319458841,-14.98800492,f,1,0.6197634999989532,4,74,B
16,17,switch/standard,j,f,B,33,57,26.21866752665977,-14.79865055,f,1,0.5521093999850564,4,75,B
16,6,switch/standard,j,f,B,17,30,-3.854444584,-37.8392214,f,1,0.7587739999871701,4,76,B
16,4,switch/standard,j,f,A,10,113,-23.83479794,30.479004461502832,j,1,0.5018417999963276,4,77,A
16,18,switch/standard,j,f,B,33,85,26.821232143487904,6.976824754974014,f,1,1.1106110999826342,4,78,B
16,23,switch/standard,j,f,B,40,85,38.21996555398914,5.057706707981728,f,1,2.9355668000061996,4,79,B
16,10,switch/standard,j,f,A,17,140,-1.732665378,46.70107673091564,j,1,0.4446771999937482,4,80,A
16,24,switch/standard,j,f,B,40,113,37.71162000489743,24.31290640287821,j,0,1.2332373000099324,5,81,A
16,20,switch/standard,j,f,A,33,140,26.14711175410772,43.96860584938808,j,1,2.075906499987468,5,82,A
16,9,switch/standard,j,f,A,17,113,-5.541832691,31.07890857909637,j,1,0.5324947999906726,5,83,A
16,2,switch/standard,j,f,A,10,57,-24.53495333,-12.0763604,j,1,0.7252900999737903,5,84,A
16,5,switch/standard,j,f,A,10,140,-16.71390068,50.111230393533226,j,1,0.48524880001787096,5,85,A
16,22,switch/standard,j,f,B,40,57,41.88083319458841,-14.98800492,f,1,0.5913292999612167,5,86,B
16,14,switch/standard,j,f,A,25,113,8.045214428,27.52140038259675,j,1,0.5168607999803498,5,87,A
16,17,switch/standard,j,f,B,33,57,26.21866752665977,-14.79865055,f,1,0.6369438000256196,5,88,B
16,12,switch/standard,j,f,B,25,57,9.177647168036223,-16.07892918,f,1,0.5210270999814384,5,89,B
16,8,switch/standard,j,f,A,17,85,-8.995342757,8.387433417892344,j,1,0.6405404999968596,5,90,A
16,18,switch/standard,j,f,B,33,85,26.821232143487904,6.976824754974014,f,1,2.1483037000289187,5,91,B
16,21,switch/standard,j,f,B,40,30,45.13982813678688,-35.30081098,f,1,1.6495067999931052,5,92,B
16,23,switch/standard,j,f,B,40,85,38.21996555398914,5.057706707981728,f,1,0.9018049000296742,5,93,B
16,16,switch/standard,j,f,B,33,30,30.19684495481618,-38.42373928,f,1,0.58159680000972,5,94,B
16,10,switch/standard,j,f,A,17,140,-1.732665378,46.70107673091564,j,1,0.48434839997207746,5,95,A
16,4,switch/standard,j,f,A,10,113,-23.83479794,30.479004461502832,j,1,0.44484440004453063,5,96,A
16,3,switch/standard,j,f,A,10,85,-26.47077232,11.92758930596587,j,1,0.4574038999853656,5,97,A
16,11,switch/standard,j,f,B,25,30,13.264524555129096,-38.2203846,f,1,0.7398629999952391,5,98,B
16,15,switch/standard,j,f,A,25,140,12.129448921922751,51.77476957,j,1,0.754588000010699,5,99,A
16,6,switch/standard,j,f,B,17,30,-3.854444584,-37.8392214,f,1,0.8024954000138678,5,100,B
17,8,standard/switch,j,f,A,17,85,-8.995342757,8.387433417892344,f,0,2.8070879000006244,1,1,B
17,6,standard/switch,j,f,B,17,30,-3.854444584,-37.8392214,f,1,3.4017485000076704,1,2,B
17,21,standard/switch,j,f,B,40,30,45.13982813678688,-35.30081098,f,1,1.87705080001615,1,3,B
17,23,standard/switch,j,f,B,40,85,38.21996555398914,5.057706707981728,j,0,2.9103543999954127,1,4,A
17,22,standard/switch,j,f,B,40,57,41.88083319458841,-14.98800492,f,1,4.748833899968304,1,5,B
17,24,standard/switch,j,f,B,40,113,37.71162000489743,24.31290640287821,j,0,5.048074899998028,1,6,A
17,3,standard/switch,j,f,A,10,85,-26.47077232,11.92758930596587,j,1,2.0403329000109807,1,7,A
17,2,standard/switch,j,f,A,10,57,-24.53495333,-12.0763604,j,1,1.890233999991324,1,8,A
17,14,standard/switch,j,f,A,25,113,8.045214428,27.52140038259675,f,0,1.5470837999600917,1,9,B
17,17,standard/switch,j,f,B,33,57,26.21866752665977,-14.79865055,f,1,3.264540100004524,1,10,B
17,5,standard/switch,j,f,A,10,140,-16.71390068,50.111230393533226,j,1,1.4573800000362098,1,11,A
17,10,standard/switch,j,f,A,17,140,-1.732665378,46.70107673091564,j,1,1.45172559999628,1,12,A
17,18,standard/switch,j,f,B,33,85,26.821232143487904,6.976824754974014,f,1,3.4937160999979824,1,13,B
17,15,standard/switch,j,f,A,25,140,12.129448921922751,51.77476957,j,1,3.331997599976603,1,14,A
17,16,standard/switch,j,f,B,33,30,30.19684495481618,-38.42373928,f,1,1.6120332999853415,1,15,B
17,9,standard/switch,j,f,A,17,113,-5.541832691,31.07890857909637,j,1,1.6313280000467785,1,16,A
17,11,standard/switch,j,f,B,25,30,13.264524555129096,-38.2203846,f,1,1.3141500999918208,1,17,B
17,12,standard/switch,j,f,B,25,57,9.177647168036223,-16.07892918,f,1,2.306824500032235,1,18,B
17,20,standard/switch,j,f,A,33,140,26.14711175410772,43.96860584938808,j,1,1.578230799990706,1,19,A
17,4,standard/switch,j,f,A,10,113,-23.83479794,30.479004461502832,j,1,1.655905099993106,1,20,A
17,10,standard/switch,j,f,A,17,140,-1.732665378,46.70107673091564,j,1,1.4969026999897324,2,21,A
17,2,standard/switch,j,f,A,10,57,-24.53495333,-12.0763604,f,0,0.9788872000062838,2,22,B
17,14,standard/switch,j,f,A,25,113,8.045214428,27.52140038259675,j,1,1.815441600047052,2,23,A
17,18,standard/switch,j,f,B,33,85,26.821232143487904,6.976824754974014,f,1,4.250953600043431,2,24,B
17,3,standard/switch,j,f,A,10,85,-26.47077232,11.92758930596587,j,1,2.1879584999987856,2,25,A
17,22,standard/switch,j,f,B,40,57,41.88083319458841,-14.98800492,f,1,1.520192899974063,2,26,B
17,17,standard/switch,j,f,B,33,57,26.21866752665977,-14.79865055,f,1,2.7605591000174172,2,27,B
17,16,standard/switch,j,f,B,33,30,30.19684495481618,-38.42373928,f,1,1.2292871000245214,2,28,B
17,15,standard/switch,j,f,A,25,140,12.129448921922751,51.77476957,j,1,1.5915912999771535,2,29,A
17,24,standard/switch,j,f,B,40,113,37.71162000489743,24.31290640287821,j,0,1.612586500006728,2,30,A
17,12,standard/switch,j,f,B,25,57,9.177647168036223,-16.07892918,f,1,1.2808384000090882,2,31,B
17,21,standard/switch,j,f,B,40,30,45.13982813678688,-35.30081098,f,1,1.3062516000354665,2,32,B
17,4,standard/switch,j,f,A,10,113,-23.83479794,30.479004461502832,j,1,2.6262264999677427,2,33,A
17,6,standard/switch,j,f,B,17,30,-3.854444584,-37.8392214,f,1,2.6133115999982692,2,34,B
17,11,standard/switch,j,f,B,25,30,13.264524555129096,-38.2203846,f,1,1.5687872000271454,2,35,B
17,5,standard/switch,j,f,A,10,140,-16.71390068,50.111230393533226,j,1,3.2285567999933846,2,36,A
17,8,standard/switch,j,f,A,17,85,-8.995342757,8.387433417892344,f,0,8.599632299970835,2,37,B
17,23,standard/switch,j,f,B,40,85,38.21996555398914,5.057706707981728,f,1,1.3663593999808654,2,38,B
17,9,standard/switch,j,f,A,17,113,-5.541832691,31.07890857909637,f,0,1.8688722999650056,2,39,B
17,20,standard/switch,j,f,A,33,140,26.14711175410772,43.96860584938808,j,1,1.341471299994737,2,40,A
17,21,standard/switch,j,f,B,40,30,45.13982813678688,-35.30081098,f,1,1.076513400010299,3,41,B
17,4,standard/switch,j,f,A,10,113,-23.83479794,30.479004461502832,j,1,1.118007100012619,3,42,A
17,17,standard/switch,j,f,B,33,57,26.21866752665977,-14.79865055,f,1,1.1909032000112347,3,43,B
17,11,standard/switch,j,f,B,25,30,13.264524555129096,-38.2203846,f,1,1.0196873999666425,3,44,B
17,8,standard/switch,j,f,A,17,85,-8.995342757,8.387433417892344,j,1,1.0547847999841906,3,45,A
17,15,standard/switch,j,f,A,25,140,12.129448921922751,51.77476957,j,1,1.1776142999879085,3,46,A
17,3,standard/switch,j,f,A,10,85,-26.47077232,11.92758930596587,j,1,1.1027504000230692,3,47,A
17,5,standard/switch,j,f,A,10,140,-16.71390068,50.111230393533226,j,1,1.239218000031542,3,48,A
17,18,standard/switch,j,f,B,33,85,26.821232143487904,6.976824754974014,f,1,1.7626457000151277,3,49,B
17,14,standard/switch,j,f,A,25,113,8.045214428,27.52140038259675,j,1,2.9366950999828987,3,50,A
17,24,standard/switch,j,f,B,40,113,37.71162000489743,24.31290640287821,j,0,3.902352900011465,3,51,A
17,9,standard/switch,j,f,A,17,113,-5.541832691,31.07890857909637,j,1,1.2043077000416815,3,52,A
17,10,standard/switch,j,f,A,17,140,-1.732665378,46.70107673091564,j,1,0.8875729999854229,3,53,A
17,12,standard/switch,j,f,B,25,57,9.177647168036223,-16.07892918,f,1,1.1140280999825336,3,54,B
17,23,standard/switch,j,f,B,40,85,38.21996555398914,5.057706707981728,f,1,1.6186040000175126,3,55,B
17,20,standard/switch,j,f,A,33,140,26.14711175410772,43.96860584938808,j,1,1.3094798999954946,3,56,A
17,6,standard/switch,j,f,B,17,30,-3.854444584,-37.8392214,f,1,1.3675356999738142,3,57,B
17,2,standard/switch,j,f,A,10,57,-24.53495333,-12.0763604,f,0,1.1409313000040129,3,58,B
17,22,standard/switch,j,f,B,40,57,41.88083319458841,-14.98800492,f,1,1.2996469999779947,3,59,B
17,16,standard/switch,j,f,B,33,30,30.19684495481618,-38.42373928,f,1,1.403812900010962,3,60,B
17,22,standard/switch,j,f,B,40,57,41.88083319458841,-14.98800492,f,1,2.29594390001148,4,61,B
17,6,standard/switch,j,f,B,17,30,-3.854444584,-37.8392214,j,0,1.7775537999696098,4,62,A
17,10,standard/switch,j,f,A,17,140,-1.732665378,46.70107673091564,j,1,1.396510099992156,4,63,A
17,18,standard/switch,j,f,B,33,85,26.821232143487904,6.976824754974014,f,1,2.19365969998762,4,64,B
17,23,standard/switch,j,f,B,40,85,38.21996555398914,5.057706707981728,f,1,1.8306165999965744,4,65,B
17,9,standard/switch,j,f,A,17,113,-5.541832691,31.07890857909637,j,1,1.6571584999910556,4,66,A
17,16,standard/switch,j,f,B,33,30,30.19684495481618,-38.42373928,f,1,1.3158687999821268,4,67,B
17,15,standard/switch,j,f,A,25,140,12.129448921922751,51.77476957,j,1,1.2509288000292145,4,68,A
17,20,standard/switch,j,f,A,33,140,26.14711175410772,43.96860584938808,j,1,1.0546116000041366,4,69,A
17,3,standard/switch,j,f,A,10,85,-26.47077232,11.92758930596587,j,1,1.1376673000049775,4,70,A
17,12,standard/switch,j,f,B,25,57,9.177647168036223,-16.07892918,j,0,2.9441383000230417,4,71,A
17,24,standard/switch,j,f,B,40,113,37.71162000489743,24.31290640287821,j,0,2.9569326999480836,4,72,A
17,17,standard/switch,j,f,B,33,57,26.21866752665977,-14.79865055,f,1,1.8900737999938428,4,73,B
17,14,standard/switch,j,f,A,25,113,8.045214428,27.52140038259675,j,1,1.233954299998004,4,74,A
17,8,standard/switch,j,f,A,17,85,-8.995342757,8.387433417892344,j,1,1.4372133999713697,4,75,A
17,4,standard/switch,j,f,A,10,113,-23.83479794,30.479004461502832,j,1,1.5120227999868805,4,76,A
17,2,standard/switch,j,f,A,10,57,-24.53495333,-12.0763604,j,1,1.3213848000159487,4,77,A
17,21,standard/switch,j,f,B,40,30,45.13982813678688,-35.30081098,f,1,1.8002222999930382,4,78,B
17,5,standard/switch,j,f,A,10,140,-16.71390068,50.111230393533226,j,1,1.4528343999991191,4,79,A
17,11,standard/switch,j,f,B,25,30,13.264524555129096,-38.2203846,f,1,3.782402700046078,4,80,B
17,9,standard/switch,j,f,A,17,113,-5.541832691,31.07890857909637,j,1,2.170510199968703,5,81,A
17,21,standard/switch,j,f,B,40,30,45.13982813678688,-35.30081098,f,1,1.519814300001599,5,82,B
17,8,standard/switch,j,f,A,17,85,-8.995342757,8.387433417892344,j,1,1.390773100021761,5,83,A
17,12,standard/switch,j,f,B,25,57,9.177647168036223,-16.07892918,j,0,1.867131099977996,5,84,A
17,2,standard/switch,j,f,A,10,57,-24.53495333,-12.0763604,j,1,1.189531900046859,5,85,A
17,14,standard/switch,j,f,A,25,113,8.045214428,27.52140038259675,j,1,1.6662194999516942,5,86,A
17,15,standard/switch,j,f,A,25,140,12.129448921922751,51.77476957,j,1,1.2275345000089146,5,87,A
17,17,standard/switch,j,f,B,33,57,26.21866752665977,-14.79865055,f,1,1.647391400008928,5,88,B
17,11,standard/switch,j,f,B,25,30,13.264524555129096,-38.2203846,f,1,1.6663812000188043,5,89,B
17,22,standard/switch,j,f,B,40,57,41.88083319458841,-14.98800492,f,1,2.236127000011038,5,90,B
17,18,standard/switch,j,f,B,33,85,26.821232143487904,6.976824754974014,f,1,2.9107725999783725,5,91,B
17,4,standard/switch,j,f,A,10,113,-23.83479794,30.479004461502832,j,1,1.852095999987796,5,92,A
17,24,standard/switch,j,f,B,40,113,37.71162000489743,24.31290640287821,f,1,1.6474700999679044,5,93,B
17,6,standard/switch,j,f,B,17,30,-3.854444584,-37.8392214,f,1,1.4096729999873787,5,94,B
17,3,standard/switch,j,f,A,10,85,-26.47077232,11.92758930596587,j,1,1.1741222999989986,5,95,A
17,20,standard/switch,j,f,A,33,140,26.14711175410772,43.96860584938808,j,1,1.0837388000218198,5,96,A
17,16,standard/switch,j,f,B,33,30,30.19684495481618,-38.42373928,f,1,1.1014964999631047,5,97,B
17,23,standard/switch,j,f,B,40,85,38.21996555398914,5.057706707981728,f,1,1.3097428999608385,5,98,B
17,10,standard/switch,j,f,A,17,140,-1.732665378,46.70107673091564,j,1,0.9668078999966384,5,99,A
17,5,standard/switch,j,f,A,10,140,-16.71390068,50.111230393533226,j,1,0.9806157000130042,5,100,A
1,2,standard/switch,j,f,A,10,57,-24.53495333,-12.0763604,f,0,4.074609800009057,1,1,B
1,12,standard/switch,j,f,B,25,57,9.177647168036223,-16.07892918,f,1,4.374710200005211,1,2,B
1,22,standard/switch,j,f,B,40,57,41.88083319458841,-14.98800492,f,1,2.6578185000107624,1,3,B
1,3,standard/switch,j,f,A,10,85,-26.47077232,11.92758930596587,j,1,1.29032939998433,1,4,A
1,15,standard/switch,j,f,A,25,140,12.129448921922751,51.77476957,j,1,2.707826500001829,1,5,A
1,9,standard/switch,j,f,A,17,113,-5.541832691,31.07890857909637,j,1,1.322708000021521,1,6,A
1,4,standard/switch,j,f,A,10,113,-23.83479794,30.479004461502832,j,1,0.8182441999670118,1,7,A
1,23,standard/switch,j,f,B,40,85,38.21996555398914,5.057706707981728,f,1,1.518655200023204,1,8,B
1,8,standard/switch,j,f,A,17,85,-8.995342757,8.387433417892344,j,1,0.7737805999931879,1,9,A
1,17,standard/switch,j,f,B,33,57,26.21866752665977,-14.79865055,f,1,2.148257300024852,1,10,B
1,5,standard/switch,j,f,A,10,140,-16.71390068,50.111230393533226,j,1,1.147697399952449,1,11,A
1,20,standard/switch,j,f,A,33,140,26.14711175410772,43.96860584938808,f,0,1.728869599988684,1,12,B
1,24,standard/switch,j,f,B,40,113,37.71162000489743,24.31290640287821,f,1,4.69619019998936,1,13,B
1,14,standard/switch,j,f,A,25,113,8.045214428,27.52140038259675,j,1,3.550570399966091,1,14,A
1,10,standard/switch,j,f,A,17,140,-1.732665378,46.70107673091564,j,1,1.795656300033443,1,15,A
1,11,standard/switch,j,f,B,25,30,13.264524555129096,-38.2203846,j,0,1.9521082000574097,1,16,A
1,16,standard/switch,j,f,B,33,30,30.19684495481618,-38.42373928,f,1,2.076490700012073,1,17,B
1,6,standard/switch,j,f,B,17,30,-3.854444584,-37.8392214,j,0,7.564962200005539,1,18,A
1,18,standard/switch,j,f,B,33,85,26.821232143487904,6.976824754974014,f,1,14.09303109999746,1,19,B
1,21,standard/switch,j,f,B,40,30,45.13982813678688,-35.30081098,f,1,1.781071100034751,1,20,B
1,3,standard/switch,j,f,A,10,85,-26.47077232,11.92758930596587,j,1,0.8900269999867305,2,21,A
1,6,standard/switch,j,f,B,17,30,-3.854444584,-37.8392214,j,0,9.763773799990304,2,22,A
1,10,standard/switch,j,f,A,17,140,-1.732665378,46.70107673091564,j,1,3.002939799975138,2,23,A
1,8,standard/switch,j,f,A,17,85,-8.995342757,8.387433417892344,j,1,9.677535600028932,2,24,A
1,23,standard/switch,j,f,B,40,85,38.21996555398914,5.057706707981728,f,1,1.9840385999996215,2,25,B
1,18,standard/switch,j,f,B,33,85,26.821232143487904,6.976824754974014,f,1,3.605876600020565,2,26,B
1,5,standard/switch,j,f,A,10,140,-16.71390068,50.111230393533226,j,1,1.088015399989672,2,27,A
1,9,standard/switch,j,f,A,17,113,-5.541832691,31.07890857909637,j,1,1.408223000005819,2,28,A
1,17,standard/switch,j,f,B,33,57,26.21866752665977,-14.79865055,f,1,3.638175599975511,2,29,B
1,14,standard/switch,j,f,A,25,113,8.045214428,27.52140038259675,j,1,1.6470082000014372,2,30,A
1,16,standard/switch,j,f,B,33,30,30.19684495481618,-38.42373928,f,1,1.9142237000050957,2,31,B
1,21,standard/switch,j,f,B,40,30,45.13982813678688,-35.30081098,f,1,1.3530685000005178,2,32,B
1,2,standard/switch,j,f,A,10,57,-24.53495333,-12.0763604,j,1,1.0070031000068411,2,33,A
1,4,standard/switch,j,f,A,10,113,-23.83479794,30.479004461502832,j,1,1.5394088000175543,2,34,A
1,20,standard/switch,j,f,A,33,140,26.14711175410772,43.96860584938808,f,0,2.2018761999788694,2,35,B
1,12,standard/switch,j,f,B,25,57,9.177647168036223,-16.07892918,f,1,2.2299157999805175,2,36,B
1,24,standard/switch,j,f,B,40,113,37.71162000489743,24.31290640287821,f,1,6.041680200025439,2,37,B
1,11,standard/switch,j,f,B,25,30,13.264524555129096,-38.2203846,f,1,1.871424599958118,2,38,B
1,15,standard/switch,j,f,A,25,140,12.129448921922751,51.77476957,j,1,1.505092000006698,2,39,A
1,22,standard/switch,j,f,B,40,57,41.88083319458841,-14.98800492,f,1,0.993116099969484,2,40,B
1,21,standard/switch,j,f,B,40,30,45.13982813678688,-35.30081098,f,1,0.968341000028886,3,41,B
1,18,standard/switch,j,f,B,33,85,26.821232143487904,6.976824754974014,j,0,5.756134899973404,3,42,A
1,3,standard/switch,j,f,A,10,85,-26.47077232,11.92758930596587,j,1,1.33529419999104,3,43,A
1,9,standard/switch,j,f,A,17,113,-5.541832691,31.07890857909637,j,1,1.1813375999918208,3,44,A
1,12,standard/switch,j,f,B,25,57,9.177647168036223,-16.07892918,f,1,1.0998870999901555,3,45,B
1,17,standard/switch,j,f,B,33,57,26.21866752665977,-14.79865055,f,1,0.6281391000375152,3,46,B
1,5,standard/switch,j,f,A,10,140,-16.71390068,50.111230393533226,j,1,0.7843589999829419,3,47,A
1,4,standard/switch,j,f,A,10,113,-23.83479794,30.479004461502832,j,1,0.7098479000269435,3,48,A
1,24,standard/switch,j,f,B,40,113,37.71162000489743,24.31290640287821,j,0,4.358630100032315,3,49,A
1,23,standard/switch,j,f,B,40,85,38.21996555398914,5.057706707981728,f,1,0.9535894999862649,3,50,B
1,2,standard/switch,j,f,A,10,57,-24.53495333,-12.0763604,j,1,1.6170367000158876,3,51,A
1,8,standard/switch,j,f,A,17,85,-8.995342757,8.387433417892344,j,1,1.028509399970062,3,52,A
1,10,standard/switch,j,f,A,17,140,-1.732665378,46.70107673091564,j,1,1.0636725000222214,3,53,A
1,14,standard/switch,j,f,A,25,113,8.045214428,27.52140038259675,j,1,1.7308592000044882,3,54,A
1,16,standard/switch,j,f,B,33,30,30.19684495481618,-38.42373928,f,1,0.8728249999694526,3,55,B
1,22,standard/switch,j,f,B,40,57,41.88083319458841,-14.98800492,f,1,1.508358299965039,3,56,B
1,6,standard/switch,j,f,B,17,30,-3.854444584,-37.8392214,f,1,4.084372599958442,3,57,B
1,15,standard/switch,j,f,A,25,140,12.129448921922751,51.77476957,j,1,5.875747099984437,3,58,A
1,20,standard/switch,j,f,A,33,140,26.14711175410772,43.96860584938808,j,1,1.6651951000094414,3,59,A
1,11,standard/switch,j,f,B,25,30,13.264524555129096,-38.2203846,f,1,1.0440627999487333,3,60,B
1,23,standard/switch,j,f,B,40,85,38.21996555398914,5.057706707981728,f,1,2.2236227999674156,4,61,B
1,17,standard/switch,j,f,B,33,57,26.21866752665977,-14.79865055,f,1,0.8411378000164405,4,62,B
1,3,standard/switch,j,f,A,10,85,-26.47077232,11.92758930596587,j,1,0.8847597000421956,4,63,A
1,9,standard/switch,j,f,A,17,113,-5.541832691,31.07890857909637,j,1,0.9666206000256352,4,64,A
1,12,standard/switch,j,f,B,25,57,9.177647168036223,-16.07892918,f,1,1.532358700002078,4,65,B
1,14,standard/switch,j,f,A,25,113,8.045214428,27.52140038259675,f,0,5.163971700007096,4,66,B
1,4,standard/switch,j,f,A,10,113,-23.83479794,30.479004461502832,j,1,1.279017399996519,4,67,A
1,20,standard/switch,j,f,A,33,140,26.14711175410772,43.96860584938808,j,1,1.2003301999648102,4,68,A
1,5,standard/switch,j,f,A,10,140,-16.71390068,50.111230393533226,j,1,0.7172804999863729,4,69,A
1,8,standard/switch,j,f,A,17,85,-8.995342757,8.387433417892344,j,1,2.2147861999692395,4,70,A
1,24,standard/switch,j,f,B,40,113,37.71162000489743,24.31290640287821,f,1,2.1855840000207536,4,71,B
1,18,standard/switch,j,f,B,33,85,26.821232143487904,6.976824754974014,f,1,1.837751000013668,4,72,B
1,2,standard/switch,j,f,A,10,57,-24.53495333,-12.0763604,j,1,1.4002181999967434,4,73,A
1,15,standard/switch,j,f,A,25,140,12.129448921922751,51.77476957,j,1,0.9809570999932476,4,74,A
1,10,standard/switch,j,f,A,17,140,-1.732665378,46.70107673091564,j,1,3.002884199959226,4,75,A
1,16,standard/switch,j,f,B,33,30,30.19684495481618,-38.42373928,f,1,1.1981787999975495,4,76,B
1,22,standard/switch,j,f,B,40,57,41.88083319458841,-14.98800492,f,1,0.9233839999651536,4,77,B
1,6,standard/switch,j,f,B,17,30,-3.854444584,-37.8392214,f,1,3.155263599997852,4,78,B
1,21,standard/switch,j,f,B,40,30,45.13982813678688,-35.30081098,f,1,0.8723613999900408,4,79,B
1,11,standard/switch,j,f,B,25,30,13.264524555129096,-38.2203846,f,1,0.5627412999747321,4,80,B
1,21,standard/switch,j,f,B,40,30,45.13982813678688,-35.30081098,f,1,0.809040600026492,5,81,B
1,12,standard/switch,j,f,B,25,57,9.177647168036223,-16.07892918,f,1,1.82989200000884,5,82,B
1,22,standard/switch,j,f,B,40,57,41.88083319458841,-14.98800492,f,1,0.9528363000135868,5,83,B
1,23,standard/switch,j,f,B,40,85,38.21996555398914,5.057706707981728,f,1,2.175006699981168,5,84,B
1,10,standard/switch,j,f,A,17,140,-1.732665378,46.70107673091564,j,1,0.7080771999899298,5,85,A
1,17,standard/switch,j,f,B,33,57,26.21866752665977,-14.79865055,f,1,2.5173130000475794,5,86,B
1,20,standard/switch,j,f,A,33,140,26.14711175410772,43.96860584938808,j,1,1.5399591999594122,5,87,A
1,11,standard/switch,j,f,B,25,30,13.264524555129096,-38.2203846,f,1,1.9388808000367137,5,88,B
1,18,standard/switch,j,f,B,33,85,26.821232143487904,6.976824754974014,f,1,2.081655199988745,5,89,B
1,5,standard/switch,j,f,A,10,140,-16.71390068,50.111230393533226,j,1,0.7148133000009693,5,90,A
1,2,standard/switch,j,f,A,10,57,-24.53495333,-12.0763604,j,1,6.363008700020146,5,91,A
1,8,standard/switch,j,f,A,17,85,-8.995342757,8.387433417892344,j,1,3.221787999966182,5,92,A
1,14,standard/switch,j,f,A,25,113,8.045214428,27.52140038259675,j,1,1.863541200000327,5,93,A
1,9,standard/switch,j,f,A,17,113,-5.541832691,31.07890857909637,j,1,1.26626830000896,5,94,A
1,16,standard/switch,j,f,B,33,30,30.19684495481618,-38.42373928,f,1,1.0609459999832325,5,95,B
1,3,standard/switch,j,f,A,10,85,-26.47077232,11.92758930596587,j,1,0.9108148999512196,5,96,A
1,4,standard/switch,j,f,A,10,113,-23.83479794,30.479004461502832,j,1,0.8642143000033684,5,97,A
1,15,standard/switch,j,f,A,25,140,12.129448921922751,51.77476957,j,1,0.721580300014466,5,98,A
1,24,standard/switch,j,f,B,40,113,37.71162000489743,24.31290640287821,f,1,0.9058063000557012,5,99,B
1,6,standard/switch,j,f,B,17,30,-3.854444584,-37.8392214,f,1,1.705679000006057,5,100,B
2,3,switch/standard,j,f,A,10,85,-26.47077232,11.92758930596587,f,0,4.169957100006286,1,1,B
2,12,switch/standard,j,f,B,25,57,9.177647168036223,-16.07892918,j,0,6.086302400013665,1,2,A
2,18,switch/standard,j,f,B,33,85,26.821232143487904,6.976824754974014,f,1,5.595174799993401,1,3,B
2,23,switch/standard,j,f,B,40,85,38.21996555398914,5.057706707981728,f,1,1.444335799998953,1,4,B
2,15,switch/standard,j,f,A,25,140,12.129448921922751,51.77476957,j,1,1.775315299993963,1,5,A
2,5,switch/standard,j,f,A,10,140,-16.71390068,50.111230393533226,j,1,1.0525506000121825,1,6,A
2,14,switch/standard,j,f,A,25,113,8.045214428,27.52140038259675,f,0,1.6153451999998651,1,7,B
2,11,switch/standard,j,f,B,25,30,13.264524555129096,-38.2203846,j,0,1.1221847999986494,1,8,A
2,17,switch/standard,j,f,B,33,57,26.21866752665977,-14.79865055,j,0,3.5138028000073973,1,9,A
2,20,switch/standard,j,f,A,33,140,26.14711175410772,43.96860584938808,f,0,3.7358088999899337,1,10,B
2,2,switch/standard,j,f,A,10,57,-24.53495333,-12.0763604,j,1,6.204175700011547,1,11,A
2,16,switch/standard,j,f,B,33,30,30.19684495481618,-38.42373928,j,0,1.3341089000023203,1,12,A
2,10,switch/standard,j,f,A,17,140,-1.732665378,46.70107673091564,f,0,9.749297599992133,1,13,B
2,24,switch/standard,j,f,B,40,113,37.71162000489743,24.31290640287821,j,0,3.2848327000101563,1,14,A
2,8,switch/standard,j,f,A,17,85,-8.995342757,8.387433417892344,j,1,1.7796836999914376,1,15,A
2,22,switch/standard,j,f,B,40,57,41.88083319458841,-14.98800492,j,0,1.1526780999993207,1,16,A
2,4,switch/standard,j,f,A,10,113,-23.83479794,30.479004461502832,j,1,5.1984145000024,1,17,A
2,6,switch/standard,j,f,B,17,30,-3.854444584,-37.8392214,f,1,2.05586609999591,1,18,B
2,21,switch/standard,j,f,B,40,30,45.13982813678688,-35.30081098,f,1,2.2498902000079397,1,19,B
2,9,switch/standard,j,f,A,17,113,-5.541832691,31.07890857909637,j,1,2.1639684999972815,1,20,A
2,16,switch/standard,j,f,B,33,30,30.19684495481618,-38.42373928,f,1,1.960816999999224,2,21,B
2,24,switch/standard,j,f,B,40,113,37.71162000489743,24.31290640287821,j,0,1.5199915999983205,2,22,A
2,4,switch/standard,j,f,A,10,113,-23.83479794,30.479004461502832,j,1,1.853924499999266,2,23,A
2,15,switch/standard,j,f,A,25,140,12.129448921922751,51.77476957,j,1,3.6165574999904497,2,24,A
2,11,switch/standard,j,f,B,25,30,13.264524555129096,-38.2203846,f,1,1.9473023000027752,2,25,B
2,10,switch/standard,j,f,A,17,140,-1.732665378,46.70107673091564,j,1,4.560703600000124,2,26,A
2,6,switch/standard,j,f,B,17,30,-3.854444584,-37.8392214,f,1,2.2211322999937693,2,27,B
2,3,switch/standard,j,f,A,10,85,-26.47077232,11.92758930596587,j,1,2.8882440000015777,2,28,A
2,2,switch/standard,j,f,A,10,57,-24.53495333,-12.0763604,j,1,1.6964087999949695,2,29,A
2,23,switch/standard,j,f,B,40,85,38.21996555398914,5.057706707981728,f,1,2.736991299985675,2,30,B
2,17,switch/standard,j,f,B,33,57,26.21866752665977,-14.79865055,f,1,1.510567000004812,2,31,B
2,21,switch/standard,j,f,B,40,30,45.13982813678688,-35.30081098,f,1,2.3414045999961672,2,32,B
2,9,switch/standard,j,f,A,17,113,-5.541832691,31.07890857909637,j,1,4.940502900004503,2,33,A
2,18,switch/standard,j,f,B,33,85,26.821232143487904,6.976824754974014,f,1,1.576559700013604,2,34,B
2,22,switch/standard,j,f,B,40,57,41.88083319458841,-14.98800492,f,1,2.1575477000005776,2,35,B
2,20,switch/standard,j,f,A,33,140,26.14711175410772,43.96860584938808,j,1,8.388188800003263,2,36,A
2,12,switch/standard,j,f,B,25,57,9.177647168036223,-16.07892918,f,1,1.163331300005666,2,37,B
2,14,switch/standard,j,f,A,25,113,8.045214428,27.52140038259675,j,1,3.504997900003218,2,38,A
2,8,switch/standard,j,f,A,17,85,-8.995342757,8.387433417892344,j,1,3.033215100003872,2,39,A
2,5,switch/standard,j,f,A,10,140,-16.71390068,50.111230393533226,j,1,4.594825899999705,2,40,A
2,2,switch/standard,j,f,A,10,57,-24.53495333,-12.0763604,j,1,2.773457999996026,3,41,A
2,4,switch/standard,j,f,A,10,113,-23.83479794,30.479004461502832,j,1,3.5855520000040997,3,42,A
2,9,switch/standard,j,f,A,17,113,-5.541832691,31.07890857909637,j,1,1.9187305999948876,3,43,A
2,23,switch/standard,j,f,B,40,85,38.21996555398914,5.057706707981728,f,1,1.3570615999924485,3,44,B
2,21,switch/standard,j,f,B,40,30,45.13982813678688,-35.30081098,f,1,2.0840221000107704,3,45,B
2,5,switch/standard,j,f,A,10,140,-16.71390068,50.111230393533226,j,1,1.5242608999978984,3,46,A
2,24,switch/standard,j,f,B,40,113,37.71162000489743,24.31290640287821,f,1,3.828149300010409,3,47,B
2,14,switch/standard,j,f,A,25,113,8.045214428,27.52140038259675,j,1,2.461667400013539,3,48,A
2,6,switch/standard,j,f,B,17,30,-3.854444584,-37.8392214,f,1,1.223288200009847,3,49,B
2,3,switch/standard,j,f,A,10,85,-26.47077232,11.92758930596587,j,1,2.4600388999970164,3,50,A
2,22,switch/standard,j,f,B,40,57,41.88083319458841,-14.98800492,f,1,1.3403058999974746,3,51,B
2,18,switch/standard,j,f,B,33,85,26.821232143487904,6.976824754974014,f,1,2.0836269999999786,3,52,B
2,10,switch/standard,j,f,A,17,140,-1.732665378,46.70107673091564,j,1,1.2429189999966184,3,53,A
2,11,switch/standard,j,f,B,25,30,13.264524555129096,-38.2203846,f,1,0.7988032999855932,3,54,B
2,12,switch/standard,j,f,B,25,57,9.177647168036223,-16.07892918,f,1,1.236065999997663,3,55,B
2,15,switch/standard,j,f,A,25,140,12.129448921922751,51.77476957,j,1,3.582965699999477,3,56,A
2,8,switch/standard,j,f,A,17,85,-8.995342757,8.387433417892344,j,1,6.450770899988129,3,57,A
2,16,switch/standard,j,f,B,33,30,30.19684495481618,-38.42373928,f,1,0.7711112000106368,3,58,B
2,20,switch/standard,j,f,A,33,140,26.14711175410772,43.96860584938808,j,1,5.3838529999920866,3,59,A
2,17,switch/standard,j,f,B,33,57,26.21866752665977,-14.79865055,f,1,1.3640103000070667,3,60,B
2,2,switch/standard,j,f,A,10,57,-24.53495333,-12.0763604,j,1,4.001354799998808,4,61,A
2,14,switch/standard,j,f,A,25,113,8.045214428,27.52140038259675,j,1,2.651614200003678,4,62,A
2,5,switch/standard,j,f,A,10,140,-16.71390068,50.111230393533226,j,1,2.5906477000098675,4,63,A
2,11,switch/standard,j,f,B,25,30,13.264524555129096,-38.2203846,f,1,4.113754300007713,4,64,B
2,23,switch/standard,j,f,B,40,85,38.21996555398914,5.057706707981728,f,1,1.5605926000134789,4,65,B
2,17,switch/standard,j,f,B,33,57,26.21866752665977,-14.79865055,f,1,1.1985388999892166,4,66,B
2,8,switch/standard,j,f,A,17,85,-8.995342757,8.387433417892344,j,1,2.3789765999972587,4,67,A
2,12,switch/standard,j,f,B,25,57,9.177647168036223,-16.07892918,f,1,1.2556922000076156,4,68,B
2,20,switch/standard,j,f,A,33,140,26.14711175410772,43.96860584938808,j,1,2.473654000001261,4,69,A
2,10,switch/standard,j,f,A,17,140,-1.732665378,46.70107673091564,j,1,1.2497684999980263,4,70,A
2,22,switch/standard,j,f,B,40,57,41.88083319458841,-14.98800492,f,1,1.285458700003801,4,71,B
2,16,switch/standard,j,f,B,33,30,30.19684495481618,-38.42373928,f,1,5.726154500007397,4,72,B
2,6,switch/standard,j,f,B,17,30,-3.854444584,-37.8392214,f,1,0.931410400007735,4,73,B
2,21,switch/standard,j,f,B,40,30,45.13982813678688,-35.30081098,f,1,0.7865443000046071,4,74,B
2,4,switch/standard,j,f,A,10,113,-23.83479794,30.479004461502832,j,1,0.792925900008413,4,75,A
2,3,switch/standard,j,f,A,10,85,-26.47077232,11.92758930596587,j,1,1.301333600000362,4,76,A
2,15,switch/standard,j,f,A,25,140,12.129448921922751,51.77476957,j,1,1.8372275000001537,4,77,A
2,24,switch/standard,j,f,B,40,113,37.71162000489743,24.31290640287821,j,0,2.568754699997953,4,78,A
2,9,switch/standard,j,f,A,17,113,-5.541832691,31.07890857909637,j,1,1.4776914000103716,4,79,A
2,18,switch/standard,j,f,B,33,85,26.821232143487904,6.976824754974014,f,1,1.0624211999966064,4,80,B
2,20,switch/standard,j,f,A,33,140,26.14711175410772,43.96860584938808,j,1,2.9457669999974314,5,81,A
2,16,switch/standard,j,f,B,33,30,30.19684495481618,-38.42373928,f,1,0.686606600007508,5,82,B
2,6,switch/standard,j,f,B,17,30,-3.854444584,-37.8392214,f,1,1.2723906000028364,5,83,B
2,11,switch/standard,j,f,B,25,30,13.264524555129096,-38.2203846,f,1,0.6909451999963494,5,84,B
2,23,switch/standard,j,f,B,40,85,38.21996555398914,5.057706707981728,f,1,3.395525899992208,5,85,B
2,15,switch/standard,j,f,A,25,140,12.129448921922751,51.77476957,j,1,1.5508963000029323,5,86,A
2,14,switch/standard,j,f,A,25,113,8.045214428,27.52140038259675,j,1,1.1335123000026217,5,87,A
2,3,switch/standard,j,f,A,10,85,-26.47077232,11.92758930596587,j,1,2.012736099990434,5,88,A
2,22,switch/standard,j,f,B,40,57,41.88083319458841,-14.98800492,f,1,0.8169443999940995,5,89,B
2,2,switch/standard,j,f,A,10,57,-24.53495333,-12.0763604,j,1,3.8698710999888135,5,90,A
2,5,switch/standard,j,f,A,10,140,-16.71390068,50.111230393533226,j,1,1.7738823000108823,5,91,A
2,4,switch/standard,j,f,A,10,113,-23.83479794,30.479004461502832,j,1,1.099444200008293,5,92,A
2,21,switch/standard,j,f,B,40,30,45.13982813678688,-35.30081098,f,1,0.6758621000044513,5,93,B
2,17,switch/standard,j,f,B,33,57,26.21866752665977,-14.79865055,f,1,0.7574554000020726,5,94,B
2,8,switch/standard,j,f,A,17,85,-8.995342757,8.387433417892344,j,1,0.8523471999942558,5,95,A
2,9,switch/standard,j,f,A,17,113,-5.541832691,31.07890857909637,j,1,0.8549217000108911,5,96,A
2,12,switch/standard,j,f,B,25,57,9.177647168036223,-16.07892918,f,1,1.7061443999991752,5,97,B
2,18,switch/standard,j,f,B,33,85,26.821232143487904,6.976824754974014,f,1,2.266452299998491,5,98,B
2,24,switch/standard,j,f,B,40,113,37.71162000489743,24.31290640287821,f,1,2.8757700999994995,5,99,B
2,10,switch/standard,j,f,A,17,140,-1.732665378,46.70107673091564,j,1,0.7325718999927631,5,100,A
3,18,standard/switch,f,j,B,33,85,26.821232143487904,6.976824754974014,f,0,1.7241771999979392,1,1,A
3,2,standard/switch,f,j,A,10,57,-24.53495333,-12.0763604,f,1,1.7799059000099078,1,2,A
3,14,standard/switch,f,j,A,25,113,8.045214428,27.52140038259675,f,1,1.7048556000227109,1,3,A
3,22,standard/switch,f,j,B,40,57,41.88083319458841,-14.98800492,j,1,1.0965674999752082,1,4,B
3,17,standard/switch,f,j,B,33,57,26.21866752665977,-14.79865055,j,1,1.0419391000177711,1,5,B
3,24,standard/switch,f,j,B,40,113,37.71162000489743,24.31290640287821,f,0,1.572853300021961,1,6,A
3,20,standard/switch,f,j,A,33,140,26.14711175410772,43.96860584938808,j,0,2.064976299996488,1,7,B
3,21,standard/switch,f,j,B,40,30,45.13982813678688,-35.30081098,f,0,1.5472594000166282,1,8,A
3,5,standard/switch,f,j,A,10,140,-16.71390068,50.111230393533226,f,1,1.9599967999965884,1,9,A
3,11,standard/switch,f,j,B,25,30,13.264524555129096,-38.2203846,j,1,1.999658000015188,1,10,B
3,4,standard/switch,f,j,A,10,113,-23.83479794,30.479004461502832,f,1,1.5397272999980487,1,11,A
3,8,standard/switch,f,j,A,17,85,-8.995342757,8.387433417892344,f,1,1.4105836999951862,1,12,A
3,3,standard/switch,f,j,A,10,85,-26.47077232,11.92758930596587,f,1,0.8694315999746323,1,13,A
3,23,standard/switch,f,j,B,40,85,38.21996555398914,5.057706707981728,j,1,1.9757675000000745,1,14,B
3,15,standard/switch,f,j,A,25,140,12.129448921922751,51.77476957,f,1,1.1644647000357509,1,15,A
3,10,standard/switch,f,j,A,17,140,-1.732665378,46.70107673091564,f,1,0.7145442999899387,1,16,A
3,6,standard/switch,f,j,B,17,30,-3.854444584,-37.8392214,j,1,1.996207000047434,1,17,B
3,16,standard/switch,f,j,B,33,30,30.19684495481618,-38.42373928,j,1,1.7443423999939114,1,18,B
3,12,standard/switch,f,j,B,25,57,9.177647168036223,-16.07892918,j,1,1.830812500033062,1,19,B
3,9,standard/switch,f,j,A,17,113,-5.541832691,31.07890857909637,f,1,1.2889749000314623,1,20,A
3,15,standard/switch,f,j,A,25,140,12.129448921922751,51.77476957,f,1,0.7060584999853745,2,21,A
3,6,standard/switch,f,j,B,17,30,-3.854444584,-37.8392214,j,1,1.23583520000102,2,22,B
3,5,standard/switch,f,j,A,10,140,-16.71390068,50.111230393533226,f,1,1.0460119999479502,2,23,A
3,14,standard/switch,f,j,A,25,113,8.045214428,27.52140038259675,f,1,1.449312100012321,2,24,A
3,11,standard/switch,f,j,B,25,30,13.264524555129096,-38.2203846,j,1,1.556273499969393,2,25,B
3,9,standard/switch,f,j,A,17,113,-5.541832691,31.07890857909637,f,1,1.7706599000375718,2,26,A
3,18,standard/switch,f,j,B,33,85,26.821232143487904,6.976824754974014,j,1,1.4715865000034682,2,27,B
3,24,standard/switch,f,j,B,40,113,37.71162000489743,24.31290640287821,j,1,1.402114600001369,2,28,B
3,20,standard/switch,f,j,A,33,140,26.14711175410772,43.96860584938808,f,1,2.0529222000041045,2,29,A
3,22,standard/switch,f,j,B,40,57,41.88083319458841,-14.98800492,j,1,1.7433524000225589,2,30,B
3,23,standard/switch,f,j,B,40,85,38.21996555398914,5.057706707981728,j,1,1.461785100051202,2,31,B
3,4,standard/switch,f,j,A,10,113,-23.83479794,30.479004461502832,f,1,3.255131399957463,2,32,A
3,3,standard/switch,f,j,A,10,85,-26.47077232,11.92758930596587,f,1,0.7610450999927707,2,33,A
3,12,standard/switch,f,j,B,25,57,9.177647168036223,-16.07892918,j,1,1.191467700002249,2,34,B
3,2,standard/switch,f,j,A,10,57,-24.53495333,-12.0763604,f,1,1.4281746000051498,2,35,A
3,17,standard/switch,f,j,B,33,57,26.21866752665977,-14.79865055,j,1,1.1999983999994583,2,36,B
3,10,standard/switch,f,j,A,17,140,-1.732665378,46.70107673091564,f,1,1.0692242999793962,2,37,A
3,16,standard/switch,f,j,B,33,30,30.19684495481618,-38.42373928,j,1,1.390815599996131,2,38,B
3,8,standard/switch,f,j,A,17,85,-8.995342757,8.387433417892344,f,1,1.8438453000271693,2,39,A
3,21,standard/switch,f,j,B,40,30,45.13982813678688,-35.30081098,j,1,1.167007400013972,2,40,B
3,5,standard/switch,f,j,A,10,140,-16.71390068,50.111230393533226,f,1,1.1491594000253826,3,41,A
3,10,standard/switch,f,j,A,17,140,-1.732665378,46.70107673091564,f,1,1.0507588000036776,3,42,A
3,22,standard/switch,f,j,B,40,57,41.88083319458841,-14.98800492,j,1,1.0635686000459827,3,43,B
3,18,standard/switch,f,j,B,33,85,26.821232143487904,6.976824754974014,j,1,2.009104299999308,3,44,B
3,3,standard/switch,f,j,A,10,85,-26.47077232,11.92758930596587,f,1,1.0695588999660686,3,45,A
3,23,standard/switch,f,j,B,40,85,38.21996555398914,5.057706707981728,j,1,1.214844100002665,3,46,B
3,12,standard/switch,f,j,B,25,57,9.177647168036223,-16.07892918,j,1,3.835390499967616,3,47,B
3,21,standard/switch,f,j,B,40,30,45.13982813678688,-35.30081098,j,1,1.6039072999847122,3,48,B
3,4,standard/switch,f,j,A,10,113,-23.83479794,30.479004461502832,f,1,1.016743599961046,3,49,A
3,11,standard/switch,f,j,B,25,30,13.264524555129096,-38.2203846,j,1,1.8045208000112325,3,50,B
3,20,standard/switch,f,j,A,33,140,26.14711175410772,43.96860584938808,f,1,1.265551000018604,3,51,A
