participant,stim,condition,area,angle,radius,angle_psy,radius_psy,key_choice,correct,rt,block_n,trial_n,choice
10,15,switch/standard,31420.28985902792,25,140,12.129448921922751,51.77476957,f,0,4.740835699951276,1,1,smaller
10,8,switch/standard,13615.095328651263,17,85,-8.995342757,8.387433417892344,j,0,3.4012958999956027,1,2,larger
10,16,switch/standard,7634.070148223198,33,30,30.19684495481618,-38.42373928,j,0,6.77148880000459,1,3,larger
10,22,switch/standard,11823.383951785188,40,57,41.88083319458841,-14.98800492,f,1,2.333451699989382,1,4,smaller
10,6,switch/standard,4618.141200776996,17,30,-3.854444584,-37.8392214,f,1,2.971995399973821,1,5,smaller
10,21,switch/standard,8953.53906273091,40,30,45.13982813678688,-35.30081098,f,1,1.552144999965094,1,6,smaller
10,9,switch/standard,21501.12120769236,17,113,-5.541832691,31.07890857909637,j,1,1.3508384000160731,1,7,larger
10,20,switch/standard,31622.74805225926,33,140,26.14711175410772,43.96860584938808,j,1,2.1086997000384144,1,8,larger
10,2,switch/standard,6783.483937263761,10,57,-24.53495333,-12.0763604,f,1,0.5012602999922819,1,9,smaller
10,4,switch/standard,20906.68824440188,10,113,-23.83479794,30.479004461502832,j,1,0.6214354999829084,1,10,larger
10,18,switch/standard,15747.887674588335,33,85,26.821232143487904,6.976824754974014,f,0,0.7456875999923795,1,11,smaller
10,14,switch/standard,22180.47316573864,25,113,8.045214428,27.52140038259675,j,1,2.4246673999587074,1,12,larger
10,23,switch/standard,16680.984325935802,40,85,38.21996555398914,5.057706707981728,j,1,1.7634979999857023,1,13,larger
10,17,switch/standard,10647.407281730188,33,57,26.21866752665977,-14.79865055,j,0,0.6651499000145122,1,14,larger
10,11,switch/standard,6126.105674500097,25,30,13.264524555129096,-38.2203846,f,1,0.7395410999888554,1,15,smaller
10,12,switch/standard,9303.433944524471,25,57,9.177647168036223,-16.07892918,f,1,0.674505099945236,1,16,smaller
10,3,switch/standard,12681.998677303796,10,85,-26.47077232,11.92758930596587,j,0,0.6452487999922596,1,17,larger
10,24,switch/standard,23454.2580870754,40,113,37.71162000489743,24.31290640287821,j,1,1.9908919999725183,1,18,larger
10,10,switch/standard,31217.831665796573,17,140,-1.732665378,46.70107673091564,j,1,1.2039447000133805,1,19,larger
10,5,switch/standard,31040.68074671915,10,140,-16.71390068,50.111230393533226,j,1,0.6394841999863274,1,20,larger
10,18,switch/standard,15747.887674588335,33,85,26.821232143487904,6.976824754974014,j,1,0.5555847999639809,2,21,larger
10,23,switch/standard,16680.984325935802,40,85,38.21996555398914,5.057706707981728,j,1,0.7300109999487177,2,22,larger
10,24,switch/standard,23454.2580870754,40,113,37.71162000489743,24.31290640287821,j,1,0.5696672999765724,2,23,larger
10,20,switch/standard,31622.74805225926,33,140,26.14711175410772,43.96860584938808,j,1,0.4882536000222899,2,24,larger
10,22,switch/standard,11823.383951785188,40,57,41.88083319458841,-14.98800492,f,1,0.786718999966979,2,25,smaller
10,10,switch/standard,31217.831665796573,17,140,-1.732665378,46.70107673091564,j,1,0.6476552999811247,2,26,larger
10,9,switch/standard,21501.12120769236,17,113,-5.541832691,31.07890857909637,j,1,0.4423642000183463,2,27,larger
10,14,switch/standard,22180.47316573864,25,113,8.045214428,27.52140038259675,j,1,0.4305654999916442,2,28,larger
10,21,switch/standard,8953.53906273091,40,30,45.13982813678688,-35.30081098,f,1,0.5871916000032797,2,29,smaller
10,12,switch/standard,9303.433944524471,25,57,9.177647168036223,-16.07892918,f,1,1.2971621000324376,2,30,smaller
10,6,switch/standard,4618.141200776996,17,30,-3.854444584,-37.8392214,f,1,0.8829396999790333,2,31,smaller
10,17,switch/standard,10647.407281730188,33,57,26.21866752665977,-14.79865055,j,0,1.1318896999582648,2,32,larger
10,15,switch/standard,31420.28985902792,25,140,12.129448921922751,51.77476957,j,1,0.8902409999864176,2,33,larger
10,11,switch/standard,6126.105674500097,25,30,13.264524555129096,-38.2203846,f,1,0.5556579999974929,2,34,smaller
10,5,switch/standard,31040.68074671915,10,140,-16.71390068,50.111230393533226,j,1,0.5700380000052974,2,35,larger
10,4,switch/standard,20906.68824440188,10,113,-23.83479794,30.479004461502832,f,0,0.936574199993629,2,36,smaller
10,16,switch/standard,7634.070148223198,33,30,30.19684495481618,-38.42373928,f,1,0.9034250000258908,2,37,smaller
10,2,switch/standard,6783.483937263761,10,57,-24.53495333,-12.0763604,f,1,1.638901399972383,2,38,smaller
10,3,switch/standard,12681.998677303796,10,85,-26.47077232,11.92758930596587,j,0,0.5461417000042275,2,39,larger
10,8,switch/standard,13615.095328651263,17,85,-8.995342757,8.387433417892344,j,0,2.464464900025632,2,40,larger
11,24,standard/switch,23454.2580870754,40,113,37.71162000489743,24.31290640287821,j,1,0.8876877999864519,1,1,larger
11,20,standard/switch,31622.74805225926,33,140,26.14711175410772,43.96860584938808,j,1,0.4247259999974631,1,2,larger
11,6,standard/switch,4618.141200776996,17,30,-3.854444584,-37.8392214,f,1,0.9332989999675192,1,3,smaller
11,10,standard/switch,31217.831665796573,17,140,-1.732665378,46.70107673091564,j,1,1.1809757999726571,1,4,larger
11,2,standard/switch,6783.483937263761,10,57,-24.53495333,-12.0763604,f,1,1.0519459000206552,1,5,smaller
11,16,standard/switch,7634.070148223198,33,30,30.19684495481618,-38.42373928,f,1,0.9019101999583654,1,6,smaller
11,14,standard/switch,22180.47316573864,25,113,8.045214428,27.52140038259675,j,1,0.6377752000116743,1,7,larger
11,21,standard/switch,8953.53906273091,40,30,45.13982813678688,-35.30081098,f,1,1.3615464000031352,1,8,smaller
11,4,standard/switch,20906.68824440188,10,113,-23.83479794,30.479004461502832,j,1,0.4166249000118114,1,9,larger
11,18,standard/switch,15747.887674588335,33,85,26.821232143487904,6.976824754974014,j,1,0.6053203000337817,1,10,larger
11,17,standard/switch,10647.407281730188,33,57,26.21866752665977,-14.79865055,f,1,0.633487300015986,1,11,smaller
11,15,standard/switch,31420.28985902792,25,140,12.129448921922751,51.77476957,f,0,0.7016081000328995,1,12,smaller
11,8,standard/switch,13615.095328651263,17,85,-8.995342757,8.387433417892344,f,1,0.9652218999690376,1,13,smaller
11,3,standard/switch,12681.998677303796,10,85,-26.47077232,11.92758930596587,f,1,0.7313837999827228,1,14,smaller
11,11,standard/switch,6126.105674500097,25,30,13.264524555129096,-38.2203846,f,1,0.7972376000252552,1,15,smaller
11,12,standard/switch,9303.433944524471,25,57,9.177647168036223,-16.07892918,f,1,0.6260827999794856,1,16,smaller
11,23,standard/switch,16680.984325935802,40,85,38.21996555398914,5.057706707981728,f,0,2.02979169995524,1,17,smaller
11,9,standard/switch,21501.12120769236,17,113,-5.541832691,31.07890857909637,j,1,0.521552000020165,1,18,larger
11,5,standard/switch,31040.68074671915,10,140,-16.71390068,50.111230393533226,j,1,0.4327719999710098,1,19,larger
11,22,standard/switch,11823.383951785188,40,57,41.88083319458841,-14.98800492,f,1,0.5964896000223234,1,20,smaller
11,21,standard/switch,8953.53906273091,40,30,45.13982813678688,-35.30081098,f,1,0.6338868999737315,2,21,smaller
11,16,standard/switch,7634.070148223198,33,30,30.19684495481618,-38.42373928,f,1,0.6947213999810629,2,22,smaller
11,12,standard/switch,9303.433944524471,25,57,9.177647168036223,-16.07892918,f,1,0.463281599979382,2,23,smaller
11,20,standard/switch,31622.74805225926,33,140,26.14711175410772,43.96860584938808,j,1,0.5629485999816097,2,24,larger
11,3,standard/switch,12681.998677303796,10,85,-26.47077232,11.92758930596587,f,1,0.6738920999923721,2,25,smaller
11,11,standard/switch,6126.105674500097,25,30,13.264524555129096,-38.2203846,j,0,0.7238642000011168,2,26,larger
11,24,standard/switch,23454.2580870754,40,113,37.71162000489743,24.31290640287821,j,1,1.4105862000142224,2,27,larger
11,15,standard/switch,31420.28985902792,25,140,12.129448921922751,51.77476957,j,1,0.5830849000485614,2,28,larger
11,23,standard/switch,16680.984325935802,40,85,38.21996555398914,5.057706707981728,j,1,0.5890570000046864,2,29,larger
11,14,standard/switch,22180.47316573864,25,113,8.045214428,27.52140038259675,j,1,0.5231294999830425,2,30,larger
11,5,standard/switch,31040.68074671915,10,140,-16.71390068,50.111230393533226,j,1,0.4345170999877155,2,31,larger
11,2,standard/switch,6783.483937263761,10,57,-24.53495333,-12.0763604,f,1,0.6781021999777295,2,32,smaller
11,4,standard/switch,20906.68824440188,10,113,-23.83479794,30.479004461502832,f,0,0.7439578999765217,2,33,smaller
11,9,standard/switch,21501.12120769236,17,113,-5.541832691,31.07890857909637,j,1,0.607337000023108,2,34,larger
11,17,standard/switch,10647.407281730188,33,57,26.21866752665977,-14.79865055,f,1,1.3236229000031017,2,35,smaller
11,6,standard/switch,4618.141200776996,17,30,-3.854444584,-37.8392214,f,1,0.6753165000118315,2,36,smaller
11,10,standard/switch,31217.831665796573,17,140,-1.732665378,46.70107673091564,j,1,0.8372191999806091,2,37,larger
11,22,standard/switch,11823.383951785188,40,57,41.88083319458841,-14.98800492,f,1,1.0326111000031233,2,38,smaller
11,18,standard/switch,15747.887674588335,33,85,26.821232143487904,6.976824754974014,f,0,0.8770602999720722,2,39,smaller
11,8,standard/switch,13615.095328651263,17,85,-8.995342757,8.387433417892344,j,0,1.1184442000230774,2,40,larger
12,22,switch/standard,11823.383951785188,40,57,41.88083319458841,-14.98800492,j,0,2.4183635999797843,1,1,larger
12,17,switch/standard,10647.407281730188,33,57,26.21866752665977,-14.79865055,f,1,1.30932220001705,1,2,smaller
12,5,switch/standard,31040.68074671915,10,140,-16.71390068,50.111230393533226,j,1,0.5891198999597691,1,3,larger
12,16,switch/standard,7634.070148223198,33,30,30.19684495481618,-38.42373928,f,1,3.130858200020157,1,4,smaller
12,6,switch/standard,4618.141200776996,17,30,-3.854444584,-37.8392214,f,1,0.45682329998817295,1,5,smaller
12,12,switch/standard,9303.433944524471,25,57,9.177647168036223,-16.07892918,f,1,0.9637035000487232,1,6,smaller
12,23,switch/standard,16680.984325935802,40,85,38.21996555398914,5.057706707981728,j,1,0.7630761999753304,1,7,larger
12,11,switch/standard,6126.105674500097,25,30,13.264524555129096,-38.2203846,f,1,0.9125316999852656,1,8,smaller
12,20,switch/standard,31622.74805225926,33,140,26.14711175410772,43.96860584938808,j,1,1.2730159999919124,1,9,larger
12,21,switch/standard,8953.53906273091,40,30,45.13982813678688,-35.30081098,f,1,0.6348672000458464,1,10,smaller
12,3,switch/standard,12681.998677303796,10,85,-26.47077232,11.92758930596587,j,0,0.4703822000301443,1,11,larger
12,24,switch/standard,23454.2580870754,40,113,37.71162000489743,24.31290640287821,j,1,1.1445282000349837,1,12,larger
12,8,switch/standard,13615.095328651263,17,85,-8.995342757,8.387433417892344,j,0,0.870868599973619,1,13,larger
12,2,switch/standard,6783.483937263761,10,57,-24.53495333,-12.0763604,f,1,1.57643850002205,1,14,smaller
12,4,switch/standard,20906.68824440188,10,113,-23.83479794,30.479004461502832,j,1,0.869649300002493,1,15,larger
12,18,switch/standard,15747.887674588335,33,85,26.821232143487904,6.976824754974014,j,1,0.7278577000251971,1,16,larger
12,14,switch/standard,22180.47316573864,25,113,8.045214428,27.52140038259675,j,1,0.7837579000042751,1,17,larger
12,9,switch/standard,21501.12120769236,17,113,-5.541832691,31.07890857909637,j,1,0.43041899998206645,1,18,larger
12,10,switch/standard,31217.831665796573,17,140,-1.732665378,46.70107673091564,j,1,0.4821679000160657,1,19,larger
12,15,switch/standard,31420.28985902792,25,140,12.129448921922751,51.77476957,j,1,0.4438256999710575,1,20,larger
12,14,switch/standard,22180.47316573864,25,113,8.045214428,27.52140038259675,j,1,0.4404816000023857,2,21,larger
12,4,switch/standard,20906.68824440188,10,113,-23.83479794,30.479004461502832,j,1,0.3795226999791339,2,22,larger
12,9,switch/standard,21501.12120769236,17,113,-5.541832691,31.07890857909637,j,1,0.5136286999913864,2,23,larger
12,17,switch/standard,10647.407281730188,33,57,26.21866752665977,-14.79865055,f,1,0.9065278000198304,2,24,smaller
12,2,switch/standard,6783.483937263761,10,57,-24.53495333,-12.0763604,f,1,1.1552537000388838,2,25,smaller
12,18,switch/standard,15747.887674588335,33,85,26.821232143487904,6.976824754974014,f,0,0.6253068999503739,2,26,smaller
12,23,switch/standard,16680.984325935802,40,85,38.21996555398914,5.057706707981728,f,0,1.9172845999710264,2,27,smaller
12,3,switch/standard,12681.998677303796,10,85,-26.47077232,11.92758930596587,j,0,0.9959625000483356,2,28,larger
12,11,switch/standard,6126.105674500097,25,30,13.264524555129096,-38.2203846,j,0,0.9282059000106528,2,29,larger
12,12,switch/standard,9303.433944524471,25,57,9.177647168036223,-16.07892918,f,1,1.143776800017804,2,30,smaller
12,15,switch/standard,31420.28985902792,25,140,12.129448921922751,51.77476957,j,1,0.7662117999861948,2,31,larger
12,24,switch/standard,23454.2580870754,40,113,37.71162000489743,24.31290640287821,j,1,0.7972237000358291,2,32,larger
12,22,switch/standard,11823.383951785188,40,57,41.88083319458841,-14.98800492,f,1,0.9699046000023372,2,33,smaller
12,5,switch/standard,31040.68074671915,10,140,-16.71390068,50.111230393533226,f,0,0.7215234000468627,2,34,smaller
12,16,switch/standard,7634.070148223198,33,30,30.19684495481618,-38.42373928,f,1,1.375843299960252,2,35,smaller
12,20,switch/standard,31622.74805225926,33,140,26.14711175410772,43.96860584938808,j,1,0.6138513999758288,2,36,larger
12,21,switch/standard,8953.53906273091,40,30,45.13982813678688,-35.30081098,f,1,0.7778770999866538,2,37,smaller
12,10,switch/standard,31217.831665796573,17,140,-1.732665378,46.70107673091564,j,1,0.6001461999840103,2,38,larger
12,8,switch/standard,13615.095328651263,17,85,-8.995342757,8.387433417892344,f,1,2.094130299985409,2,39,smaller
12,6,switch/standard,4618.141200776996,17,30,-3.854444584,-37.8392214,j,0,0.4460788000142202,2,40,larger
13,20,standard/switch,31622.74805225926,33,140,26.14711175410772,43.96860584938808,j,1,2.155873700015946,1,1,larger
13,2,standard/switch,6783.483937263761,10,57,-24.53495333,-12.0763604,f,1,0.937661100004334,1,2,smaller
13,4,standard/switch,20906.68824440188,10,113,-23.83479794,30.479004461502832,j,1,0.9368019000103232,1,3,larger
13,17,standard/switch,10647.407281730188,33,57,26.21866752665977,-14.79865055,j,0,2.7358970000059344,1,4,larger
13,16,standard/switch,7634.070148223198,33,30,30.19684495481618,-38.42373928,f,1,1.4698805999942124,1,5,smaller
13,8,standard/switch,13615.095328651263,17,85,-8.995342757,8.387433417892344,f,1,2.5509437000146136,1,6,smaller
13,14,standard/switch,22180.47316573864,25,113,8.045214428,27.52140038259675,j,1,1.004025999980513,1,7,larger
13,10,standard/switch,31217.831665796573,17,140,-1.732665378,46.70107673091564,j,1,0.9448285000107716,1,8,larger
13,6,standard/switch,4618.141200776996,17,30,-3.854444584,-37.8392214,f,1,0.7196969999931753,1,9,smaller
13,12,standard/switch,9303.433944524471,25,57,9.177647168036223,-16.07892918,f,1,1.1757142000133172,1,10,smaller
13,18,standard/switch,15747.887674588335,33,85,26.821232143487904,6.976824754974014,j,1,1.310846300009871,1,11,larger
13,23,standard/switch,16680.984325935802,40,85,38.21996555398914,5.057706707981728,j,1,0.8702698999841232,1,12,larger
13,5,standard/switch,31040.68074671915,10,140,-16.71390068,50.111230393533226,j,1,0.6724807000136934,1,13,larger
13,3,standard/switch,12681.998677303796,10,85,-26.47077232,11.92758930596587,f,1,2.3220477999711875,1,14,smaller
13,15,standard/switch,31420.28985902792,25,140,12.129448921922751,51.77476957,j,1,0.8174139999900945,1,15,larger
13,9,standard/switch,21501.12120769236,17,113,-5.541832691,31.07890857909637,j,1,0.8048817999952007,1,16,larger
13,22,standard/switch,11823.383951785188,40,57,41.88083319458841,-14.98800492,j,0,2.465698699990753,1,17,larger
13,11,standard/switch,6126.105674500097,25,30,13.264524555129096,-38.2203846,f,1,1.2990453999955207,1,18,smaller
13,24,standard/switch,23454.2580870754,40,113,37.71162000489743,24.31290640287821,j,1,1.1237253999861423,1,19,larger
13,21,standard/switch,8953.53906273091,40,30,45.13982813678688,-35.30081098,j,0,2.2909007999987807,1,20,larger
13,17,standard/switch,10647.407281730188,33,57,26.21866752665977,-14.79865055,f,1,2.3141904000076465,2,21,smaller
13,11,standard/switch,6126.105674500097,25,30,13.264524555129096,-38.2203846,f,1,1.1460262000036892,2,22,smaller
13,18,standard/switch,15747.887674588335,33,85,26.821232143487904,6.976824754974014,f,0,1.5056555999908596,2,23,smaller
13,21,standard/switch,8953.53906273091,40,30,45.13982813678688,-35.30081098,f,1,1.6970109999820124,2,24,smaller
13,16,standard/switch,7634.070148223198,33,30,30.19684495481618,-38.42373928,f,1,0.953905800008215,2,25,smaller
13,22,standard/switch,11823.383951785188,40,57,41.88083319458841,-14.98800492,f,1,1.1275636999926064,2,26,smaller
13,9,standard/switch,21501.12120769236,17,113,-5.541832691,31.07890857909637,j,1,0.799721799994586,2,27,larger
13,14,standard/switch,22180.47316573864,25,113,8.045214428,27.52140038259675,j,1,0.8364158000040334,2,28,larger
13,4,standard/switch,20906.68824440188,10,113,-23.83479794,30.479004461502832,j,1,0.8959441000188235,2,29,larger
13,10,standard/switch,31217.831665796573,17,140,-1.732665378,46.70107673091564,j,1,0.6974437000171747,2,30,larger
13,24,standard/switch,23454.2580870754,40,113,37.71162000489743,24.31290640287821,j,1,1.0186629999952856,2,31,larger
13,6,standard/switch,4618.141200776996,17,30,-3.854444584,-37.8392214,f,1,0.9258006999734788,2,32,smaller
13,3,standard/switch,12681.998677303796,10,85,-26.47077232,11.92758930596587,j,0,1.366502999997465,2,33,larger
13,8,standard/switch,13615.095328651263,17,85,-8.995342757,8.387433417892344,f,1,1.6916039999923669,2,34,smaller
13,15,standard/switch,31420.28985902792,25,140,12.129448921922751,51.77476957,j,1,0.7799737000023015,2,35,larger
13,12,standard/switch,9303.433944524471,25,57,9.177647168036223,-16.07892918,f,1,1.690643000009004,2,36,smaller
13,23,standard/switch,16680.984325935802,40,85,38.21996555398914,5.057706707981728,j,1,1.6517179000074975,2,37,larger
13,2,standard/switch,6783.483937263761,10,57,-24.53495333,-12.0763604,f,1,1.653739899978973,2,38,smaller
13,5,standard/switch,31040.68074671915,10,140,-16.71390068,50.111230393533226,j,1,0.9832422000181396,2,39,larger
13,20,standard/switch,31622.74805225926,33,140,26.14711175410772,43.96860584938808,j,1,1.2211958999978378,2,40,larger
14,23,switch/standard,16680.984325935802,40,85,38.21996555398914,5.057706707981728,j,1,3.5535480999969877,1,1,larger
14,15,switch/standard,31420.28985902792,25,140,12.129448921922751,51.77476957,j,1,0.8215286000049673,1,2,larger
14,2,switch/standard,6783.483937263761,10,57,-24.53495333,-12.0763604,f,1,1.066160399990622,1,3,smaller
14,6,switch/standard,4618.141200776996,17,30,-3.854444584,-37.8392214,j,0,1.340006100013852,1,4,larger
14,21,switch/standard,8953.53906273091,40,30,45.13982813678688,-35.30081098,f,1,0.9705935000092722,1,5,smaller
14,11,switch/standard,6126.105674500097,25,30,13.264524555129096,-38.2203846,f,1,0.9525798999820836,1,6,smaller
14,17,switch/standard,10647.407281730188,33,57,26.21866752665977,-14.79865055,j,0,2.086435800010804,1,7,larger
14,22,switch/standard,11823.383951785188,40,57,41.88083319458841,-14.98800492,j,0,1.3588579000206664,1,8,larger
14,4,switch/standard,20906.68824440188,10,113,-23.83479794,30.479004461502832,j,1,1.179726300004404,1,9,larger
14,9,switch/standard,21501.12120769236,17,113,-5.541832691,31.07890857909637,j,1,0.9776832000352442,1,10,larger
14,16,switch/standard,7634.070148223198,33,30,30.19684495481618,-38.42373928,f,1,0.7185948000405915,1,11,smaller
14,24,switch/standard,23454.2580870754,40,113,37.71162000489743,24.31290640287821,j,1,0.7439050000393763,1,12,larger
14,12,switch/standard,9303.433944524471,25,57,9.177647168036223,-16.07892918,f,1,0.9256960999919102,1,13,smaller
14,8,switch/standard,13615.095328651263,17,85,-8.995342757,8.387433417892344,j,0,5.24676070001442,1,14,larger
14,18,switch/standard,15747.887674588335,33,85,26.821232143487904,6.976824754974014,f,0,1.478342100046575,1,15,smaller
14,3,switch/standard,12681.998677303796,10,85,-26.47077232,11.92758930596587,j,0,1.214312800031621,1,16,larger
14,10,switch/standard,31217.831665796573,17,140,-1.732665378,46.70107673091564,j,1,0.8658253999892622,1,17,larger
14,20,switch/standard,31622.74805225926,33,140,26.14711175410772,43.96860584938808,j,1,0.5406613999512047,1,18,larger
14,14,switch/standard,22180.47316573864,25,113,8.045214428,27.52140038259675,j,1,0.5315497000119649,1,19,larger
14,5,switch/standard,31040.68074671915,10,140,-16.71390068,50.111230393533226,j,1,0.5564841000013985,1,20,larger
14,17,switch/standard,10647.407281730188,33,57,26.21866752665977,-14.79865055,f,1,0.51486120000481606,2,21,smaller
14,23,switch/standard,16680.984325935802,40,85,38.21996555398914,5.057706707981728,f,0,3.092311999993399,2,22,smaller
14,4,switch/standard,20906.68824440188,10,113,-23.83479794,30.479004461502832,j,1,0.7471919999807142,2,23,larger
14,11,switch/standard,6126.105674500097,25,30,13.264524555129096,-38.2203846,f,1,0.6418045000173151,2,24,smaller
14,18,switch/standard,15747.887674588335,33,85,26.821232143487904,6.976824754974014,j,1,2.9978123999899253,2,25,larger
14,9,switch/standard,21501.12120769236,17,113,-5.541832691,31.07890857909637,j,1,0.6166276999865659,2,26,larger
14,10,switch/standard,31217.831665796573,17,140,-1.732665378,46.70107673091564,j,1,0.4299002000479959,2,27,larger
14,5,switch/standard,31040.68074671915,10,140,-16.71390068,50.111230393533226,j,1,0.36208689998602495,2,28,larger
14,3,switch/standard,12681.998677303796,10,85,-26.47077232,11.92758930596587,j,0,2.264215699979104,2,29,larger
14,21,switch/standard,8953.53906273091,40,30,45.13982813678688,-35.30081098,f,1,2.3899504999862984,2,30,smaller
14,16,switch/standard,7634.070148223198,33,30,30.19684495481618,-38.42373928,f,1,0.7260983000160195,2,31,smaller
14,2,switch/standard,6783.483937263761,10,57,-24.53495333,-12.0763604,f,1,0.8699231000500731,2,32,smaller
14,14,switch/standard,22180.47316573864,25,113,8.045214428,27.52140038259675,j,1,0.6720669000060298,2,33,larger
14,6,switch/standard,4618.141200776996,17,30,-3.854444584,-37.8392214,f,1,0.5208640999626368,2,34,smaller
14,22,switch/standard,11823.383951785188,40,57,41.88083319458841,-14.98800492,f,1,0.5302363999653608,2,35,smaller
14,8,switch/standard,13615.095328651263,17,85,-8.995342757,8.387433417892344,f,1,1.2338562999502756,2,36,smaller
14,20,switch/standard,31622.74805225926,33,140,26.14711175410772,43.96860584938808,j,1,0.5578917000093497,2,37,larger
14,15,switch/standard,31420.28985902792,25,140,12.129448921922751,51.77476957,j,1,0.6196039000060409,2,38,larger
14,12,switch/standard,9303.433944524471,25,57,9.177647168036223,-16.07892918,f,1,0.4644992999965325,2,39,smaller
14,24,switch/standard,23454.2580870754,40,113,37.71162000489743,24.31290640287821,j,1,1.346957400033716,2,40,larger
15,2,standard/switch,6783.483937263761,10,57,-24.53495333,-12.0763604,f,1,2.511451600003056,1,1,smaller
15,24,standard/switch,23454.2580870754,40,113,37.71162000489743,24.31290640287821,j,1,1.2228896000306122,1,2,larger
15,16,standard/switch,7634.070148223198,33,30,30.19684495481618,-38.42373928,j,0,3.1537441999535076,1,3,larger
15,22,standard/switch,11823.383951785188,40,57,41.88083319458841,-14.98800492,j,0,3.9418757999665104,1,4,larger
15,5,standard/switch,31040.68074671915,10,140,-16.71390068,50.111230393533226,j,1,1.4506078999838792,1,5,larger
15,17,standard/switch,10647.407281730188,33,57,26.21866752665977,-14.79865055,f,1,1.8692024999763817,1,6,smaller
15,15,standard/switch,31420.28985902792,25,140,12.129448921922751,51.77476957,j,1,2.6066598999896087,1,7,larger
15,20,standard/switch,31622.74805225926,33,140,26.14711175410772,43.96860584938808,j,1,1.6172581000137145,1,8,larger
15,23,standard/switch,16680.984325935802,40,85,38.21996555398914,5.057706707981728,j,1,3.845060000021476,1,9,larger
15,10,standard/switch,31217.831665796573,17,140,-1.732665378,46.70107673091564,j,1,0.8466261000139639,1,10,larger
15,18,standard/switch,15747.887674588335,33,85,26.821232143487904,6.976824754974014,j,1,0.881907700037118,1,11,larger
15,9,standard/switch,21501.12120769236,17,113,-5.541832691,31.07890857909637,j,1,0.9074139999574982,1,12,larger
15,8,standard/switch,13615.095328651263,17,85,-8.995342757,8.387433417892344,f,1,1.804651999962516,1,13,smaller
15,6,standard/switch,4618.141200776996,17,30,-3.854444584,-37.8392214,f,1,0.9927379000000656,1,14,smaller
15,4,standard/switch,20906.68824440188,10,113,-23.83479794,30.479004461502832,j,1,2.189355999988038,1,15,larger
15,3,standard/switch,12681.998677303796,10,85,-26.47077232,11.92758930596587,f,1,1.9654406000045128,1,16,smaller
15,11,standard/switch,6126.105674500097,25,30,13.264524555129096,-38.2203846,f,1,0.9987654000287876,1,17,smaller
15,21,standard/switch,8953.53906273091,40,30,45.13982813678688,-35.30081098,f,1,1.4363868999644185,1,18,smaller
15,14,standard/switch,22180.47316573864,25,113,8.045214428,27.52140038259675,j,1,3.078791400010232,1,19,larger
15,12,standard/switch,9303.433944524471,25,57,9.177647168036223,-16.07892918,f,1,1.3991462999838404,1,20,smaller
15,17,standard/switch,10647.407281730188,33,57,26.21866752665977,-14.79865055,f,1,7.025221700023394,2,21,smaller
15,18,standard/switch,15747.887674588335,33,85,26.821232143487904,6.976824754974014,f,0,0.6993963000131771,2,22,smaller
15,3,standard/switch,12681.998677303796,10,85,-26.47077232,11.92758930596587,f,1,2.7640854999772273,2,23,smaller
15,12,standard/switch,9303.433944524471,25,57,9.177647168036223,-16.07892918,f,1,2.4082423000363633,2,24,smaller
15,9,standard/switch,21501.12120769236,17,113,-5.541832691,31.07890857909637,j,1,1.148696499993093,2,25,larger
15,11,standard/switch,6126.105674500097,25,30,13.264524555129096,-38.2203846,f,1,1.148335199977737,2,26,smaller
15,8,standard/switch,13615.095328651263,17,85,-8.995342757,8.387433417892344,f,1,3.0741926000337116,2,27,smaller
15,20,standard/switch,31622.74805225926,33,140,26.14711175410772,43.96860584938808,j,1,2.03541569999652,2,28,larger
15,6,standard/switch,4618.141200776996,17,30,-3.854444584,-37.8392214,f,1,0.8628222999977879,2,29,smaller
15,10,standard/switch,31217.831665796573,17,140,-1.732665378,46.70107673091564,j,1,1.0172870999667794,2,30,larger
15,23,standard/switch,16680.984325935802,40,85,38.21996555398914,5.057706707981728,f,0,0.7641206000116654,2,31,smaller
15,2,standard/switch,6783.483937263761,10,57,-24.53495333,-12.0763604,f,1,0.9630262000137008,2,32,smaller
15,5,standard/switch,31040.68074671915,10,140,-16.71390068,50.111230393533226,j,1,1.3775672999909148,2,33,larger
15,14,standard/switch,22180.47316573864,25,113,8.045214428,27.52140038259675,j,1,6.352679599949624,2,34,larger
15,24,standard/switch,23454.2580870754,40,113,37.71162000489743,24.31290640287821,j,1,0.976969100011047,2,35,larger
15,22,standard/switch,11823.383951785188,40,57,41.88083319458841,-14.98800492,f,1,0.7123580999905244,2,36,smaller
15,4,standard/switch,20906.68824440188,10,113,-23.83479794,30.479004461502832,j,1,3.048984199995175,2,37,larger
15,15,standard/switch,31420.28985902792,25,140,12.129448921922751,51.77476957,j,1,0.6986496000317857,2,38,larger
15,16,standard/switch,7634.070148223198,33,30,30.19684495481618,-38.42373928,f,1,0.9803340000216848,2,39,smaller
15,21,standard/switch,8953.53906273091,40,30,45.13982813678688,-35.30081098,f,1,0.5930058999801986,2,40,smaller
16,11,switch/standard,6126.105674500097,25,30,13.264524555129096,-38.2203846,f,1,2.168337300012354,1,1,smaller
16,15,switch/standard,31420.28985902792,25,140,12.129448921922751,51.77476957,j,1,0.46891120000509545,1,2,larger
16,22,switch/standard,11823.383951785188,40,57,41.88083319458841,-14.98800492,j,0,1.623188300000038,1,3,larger
16,4,switch/standard,20906.68824440188,10,113,-23.83479794,30.479004461502832,j,1,1.1940887999953702,1,4,larger
16,17,switch/standard,10647.407281730188,33,57,26.21866752665977,-14.79865055,f,1,0.7994404000346549,1,5,smaller
16,24,switch/standard,23454.2580870754,40,113,37.71162000489743,24.31290640287821,j,1,0.46862230001715943,1,6,larger
16,2,switch/standard,6783.483937263761,10,57,-24.53495333,-12.0763604,f,1,0.7591528999619186,1,7,smaller
16,8,switch/standard,13615.095328651263,17,85,-8.995342757,8.387433417892344,f,1,0.901282100006938,1,8,smaller
16,10,switch/standard,31217.831665796573,17,140,-1.732665378,46.70107673091564,j,1,0.43811240000650287,1,9,larger
16,9,switch/standard,21501.12120769236,17,113,-5.541832691,31.07890857909637,j,1,0.4418121000053361,1,10,larger
16,12,switch/standard,9303.433944524471,25,57,9.177647168036223,-16.07892918,f,1,0.5573528000386432,1,11,smaller
16,14,switch/standard,22180.47316573864,25,113,8.045214428,27.52140038259675,j,1,0.52337599999737,1,12,larger
16,6,switch/standard,4618.141200776996,17,30,-3.854444584,-37.8392214,f,1,0.4209063000162132,1,13,smaller
16,5,switch/standard,31040.68074671915,10,140,-16.71390068,50.111230393533226,j,1,0.369182099995669,1,14,larger
16,21,switch/standard,8953.53906273091,40,30,45.13982813678688,-35.30081098,f,1,0.69565159996273,1,15,smaller
16,16,switch/standard,7634.070148223198,33,30,30.19684495481618,-38.42373928,f,1,0.4393918999703601,1,16,smaller
16,23,switch/standard,16680.984325935802,40,85,38.21996555398914,5.057706707981728,j,1,0.5800991000141948,1,17,larger
16,20,switch/standard,31622.74805225926,33,140,26.14711175410772,43.96860584938808,j,1,0.6021057000034489,1,18,larger
16,3,switch/standard,12681.998677303796,10,85,-26.47077232,11.92758930596587,f,1,0.9125934000476263,1,19,smaller
16,18,switch/standard,15747.887674588335,33,85,26.821232143487904,6.976824754974014,f,0,0.5273002999601886,1,20,smaller
16,4,switch/standard,20906.68824440188,10,113,-23.83479794,30.479004461502832,j,1,0.5432442000019364,2,21,larger
16,9,switch/standard,21501.12120769236,17,113,-5.541832691,31.07890857909637,j,1,0.4384166999952867,2,22,larger
16,12,switch/standard,9303.433944524471,25,57,9.177647168036223,-16.07892918,f,1,0.39453049999428913,2,23,smaller
16,14,switch/standard,22180.47316573864,25,113,8.045214428,27.52140038259675,j,1,0.3517295999918133,2,24,larger
16,18,switch/standard,15747.887674588335,33,85,26.821232143487904,6.976824754974014,j,1,0.36678280000342056,2,25,larger
16,24,switch/standard,23454.2580870754,40,113,37.71162000489743,24.31290640287821,j,1,0.39823449996765703,2,26,larger
16,22,switch/standard,11823.383951785188,40,57,41.88083319458841,-14.98800492,f,1,0.5162698000203818,2,27,smaller
16,11,switch/standard,6126.105674500097,25,30,13.264524555129096,-38.2203846,j,0,0.35591839998960495,2,28,larger
16,3,switch/standard,12681.998677303796,10,85,-26.47077232,11.92758930596587,f,1,1.082251299987547,2,29,smaller
16,5,switch/standard,31040.68074671915,10,140,-16.71390068,50.111230393533226,j,1,0.43580620002467185,2,30,larger
16,8,switch/standard,13615.095328651263,17,85,-8.995342757,8.387433417892344,f,1,0.9116817000322044,2,31,smaller
16,23,switch/standard,16680.984325935802,40,85,38.21996555398914,5.057706707981728,j,1,0.8883629000047222,2,32,larger
16,6,switch/standard,4618.141200776996,17,30,-3.854444584,-37.8392214,f,1,0.6343295000260696,2,33,smaller
16,15,switch/standard,31420.28985902792,25,140,12.129448921922751,51.77476957,j,1,0.45264050003606826,2,34,larger
16,21,switch/standard,8953.53906273091,40,30,45.13982813678688,-35.30081098,f,1,2.087133199966047,2,35,smaller
16,2,switch/standard,6783.483937263761,10,57,-24.53495333,-12.0763604,f,1,0.576023300003726,2,36,smaller
16,16,switch/standard,7634.070148223198,33,30,30.19684495481618,-38.42373928,f,1,7.301208899996709,2,37,smaller
16,20,switch/standard,31622.74805225926,33,140,26.14711175410772,43.96860584938808,j,1,0.625163100019563,2,38,larger
16,10,switch/standard,31217.831665796573,17,140,-1.732665378,46.70107673091564,f,0,0.3244543999899179,2,39,smaller
16,17,switch/standard,10647.407281730188,33,57,26.21866752665977,-14.79865055,f,1,6.469556999974884,2,40,smaller
17,6,standard/switch,4618.141200776996,17,30,-3.854444584,-37.8392214,f,1,1.6912721000262536,1,1,smaller
17,3,standard/switch,12681.998677303796,10,85,-26.47077232,11.92758930596587,f,1,3.2690025999909267,1,2,smaller
17,5,standard/switch,31040.68074671915,10,140,-16.71390068,50.111230393533226,j,1,1.5730389999807812,1,3,larger
17,8,standard/switch,13615.095328651263,17,85,-8.995342757,8.387433417892344,j,0,2.0115880999946967,1,4,larger
17,14,standard/switch,22180.47316573864,25,113,8.045214428,27.52140038259675,j,1,1.565261300012935,1,5,larger
17,16,standard/switch,7634.070148223198,33,30,30.19684495481618,-38.42373928,f,1,1.6286048999754712,1,6,smaller
17,24,standard/switch,23454.2580870754,40,113,37.71162000489743,24.31290640287821,j,1,1.558171899989247,1,7,larger
17,4,standard/switch,20906.68824440188,10,113,-23.83479794,30.479004461502832,j,1,1.6210180999478323,1,8,larger
17,10,standard/switch,31217.831665796573,17,140,-1.732665378,46.70107673091564,j,1,1.384764299960807,1,9,larger
17,9,standard/switch,21501.12120769236,17,113,-5.541832691,31.07890857909637,j,1,1.526690199971199,1,10,larger
17,12,standard/switch,9303.433944524471,25,57,9.177647168036223,-16.07892918,f,1,1.7424179000081494,1,11,smaller
17,20,standard/switch,31622.74805225926,33,140,26.14711175410772,43.96860584938808,j,1,1.5487047000206076,1,12,larger
17,15,standard/switch,31420.28985902792,25,140,12.129448921922751,51.77476957,j,1,1.1072362000122666,1,13,larger
17,17,standard/switch,10647.407281730188,33,57,26.21866752665977,-14.79865055,f,1,1.6040060999803245,1,14,smaller
17,21,standard/switch,8953.53906273091,40,30,45.13982813678688,-35.30081098,f,1,2.72003660001792,1,15,smaller
17,11,standard/switch,6126.105674500097,25,30,13.264524555129096,-38.2203846,f,1,1.8544666000525467,1,16,smaller
17,2,standard/switch,6783.483937263761,10,57,-24.53495333,-12.0763604,f,1,2.624167400004808,1,17,smaller
17,23,standard/switch,16680.984325935802,40,85,38.21996555398914,5.057706707981728,j,1,1.38652010000078,1,18,larger
17,22,standard/switch,11823.383951785188,40,57,41.88083319458841,-14.98800492,j,0,1.6707459999597631,1,19,larger
17,18,standard/switch,15747.887674588335,33,85,26.821232143487904,6.976824754974014,j,1,1.103119199979119,1,20,larger
17,2,standard/switch,6783.483937263761,10,57,-24.53495333,-12.0763604,f,1,1.696336799999699,2,21,smaller
17,16,standard/switch,7634.070148223198,33,30,30.19684495481618,-38.42373928,f,1,1.368847000005189,2,22,smaller
17,4,standard/switch,20906.68824440188,10,113,-23.83479794,30.479004461502832,j,1,1.4227441999828443,2,23,larger
17,15,standard/switch,31420.28985902792,25,140,12.129448921922751,51.77476957,j,1,1.2176068000262603,2,24,larger
17,5,standard/switch,31040.68074671915,10,140,-16.71390068,50.111230393533226,j,1,1.0368499000323936,2,25,larger
17,3,standard/switch,12681.998677303796,10,85,-26.47077232,11.92758930596587,j,0,1.232249100052286,2,26,larger
17,9,standard/switch,21501.12120769236,17,113,-5.541832691,31.07890857909637,j,1,1.523183599987533,2,27,larger
17,22,standard/switch,11823.383951785188,40,57,41.88083319458841,-14.98800492,j,0,1.755107799952384,2,28,larger
17,18,standard/switch,15747.887674588335,33,85,26.821232143487904,6.976824754974014,j,1,1.2885563999880103,2,29,larger
17,11,standard/switch,6126.105674500097,25,30,13.264524555129096,-38.2203846,f,1,1.4658093000180088,2,30,smaller
17,8,standard/switch,13615.095328651263,17,85,-8.995342757,8.387433417892344,j,0,1.8841246999800203,2,31,larger
17,6,standard/switch,4618.141200776996,17,30,-3.854444584,-37.8392214,f,1,1.6278646999853663,2,32,smaller
17,20,standard/switch,31622.74805225926,33,140,26.14711175410772,43.96860584938808,j,1,1.278577699966263,2,33,larger
17,12,standard/switch,9303.433944524471,25,57,9.177647168036223,-16.07892918,j,0,2.4325245000072755,2,34,larger
17,23,standard/switch,16680.984325935802,40,85,38.21996555398914,5.057706707981728,j,1,1.2356929000234231,2,35,larger
17,24,standard/switch,23454.2580870754,40,113,37.71162000489743,24.31290640287821,j,1,1.030184899980668,2,36,larger
17,14,standard/switch,22180.47316573864,25,113,8.045214428,27.52140038259675,j,1,1.2738263999926858,2,37,larger
17,17,standard/switch,10647.407281730188,33,57,26.21866752665977,-14.79865055,j,0,1.2689456000225618,2,38,larger
17,21,standard/switch,8953.53906273091,40,30,45.13982813678688,-35.30081098,j,0,0.9322245999937876,2,39,larger
17,10,standard/switch,31217.831665796573,17,140,-1.732665378,46.70107673091564,j,1,0.9068885000306182,2,40,larger
1,24,standard/switch,23454.2580870754,40,113,37.71162000489743,24.31290640287821,j,1,6.744217200030107,1,1,larger
1,15,standard/switch,31420.28985902792,25,140,12.129448921922751,51.77476957,j,1,1.4275431000278331,1,2,larger
1,5,standard/switch,31040.68074671915,10,140,-16.71390068,50.111230393533226,j,1,1.5418960999813862,1,3,larger
1,4,standard/switch,20906.68824440188,10,113,-23.83479794,30.479004461502832,j,1,1.1082507999963127,1,4,larger
1,9,standard/switch,21501.12120769236,17,113,-5.541832691,31.07890857909637,j,1,2.5666034999885596,1,5,larger
1,12,standard/switch,9303.433944524471,25,57,9.177647168036223,-16.07892918,f,1,1.6745670000091195,1,6,smaller
1,14,standard/switch,22180.47316573864,25,113,8.045214428,27.52140038259675,j,1,2.133521599986125,1,7,larger
1,17,standard/switch,10647.407281730188,33,57,26.21866752665977,-14.79865055,f,1,0.5954038000199944,1,8,smaller
1,10,standard/switch,31217.831665796573,17,140,-1.732665378,46.70107673091564,j,1,0.7121397000155412,1,9,larger
1,21,standard/switch,8953.53906273091,40,30,45.13982813678688,-35.30081098,f,1,1.0495344999944791,1,10,smaller
1,6,standard/switch,4618.141200776996,17,30,-3.854444584,-37.8392214,f,1,1.068691199994646,1,11,smaller
1,23,standard/switch,16680.984325935802,40,85,38.21996555398914,5.057706707981728,f,0,1.8218951000017112,1,12,smaller
1,11,standard/switch,6126.105674500097,25,30,13.264524555129096,-38.2203846,f,1,0.7122530000051484,1,13,smaller
1,8,standard/switch,13615.095328651263,17,85,-8.995342757,8.387433417892344,f,1,2.016957099956926,1,14,smaller
1,18,standard/switch,15747.887674588335,33,85,26.821232143487904,6.976824754974014,f,0,1.324595500016585,1,15,smaller
1,2,standard/switch,6783.483937263761,10,57,-24.53495333,-12.0763604,f,1,1.0275504000019282,1,16,smaller
1,16,standard/switch,7634.070148223198,33,30,30.19684495481618,-38.42373928,f,1,0.7992933000205085,1,17,smaller
1,3,standard/switch,12681.998677303796,10,85,-26.47077232,11.92758930596587,j,0,0.9888750000391155,1,18,larger
1,20,standard/switch,31622.74805225926,33,140,26.14711175410772,43.96860584938808,j,1,1.8970767999999223,1,19,larger
1,22,standard/switch,11823.383951785188,40,57,41.88083319458841,-14.98800492,f,1,3.2175644999952056,1,20,smaller
1,10,standard/switch,31217.831665796573,17,140,-1.732665378,46.70107673091564,j,1,1.0440234999987297,2,21,larger
1,21,standard/switch,8953.53906273091,40,30,45.13982813678688,-35.30081098,f,1,1.1357395999948494,2,22,smaller
1,17,standard/switch,10647.407281730188,33,57,26.21866752665977,-14.79865055,f,1,1.0706572000053711,2,23,smaller
1,6,standard/switch,4618.141200776996,17,30,-3.854444584,-37.8392214,f,1,0.6250835999962874,2,24,smaller
1,20,standard/switch,31622.74805225926,33,140,26.14711175410772,43.96860584938808,j,1,1.002735499991104,2,25,larger
1,12,standard/switch,9303.433944524471,25,57,9.177647168036223,-16.07892918,f,1,1.0892020000028424,2,26,smaller
1,23,standard/switch,16680.984325935802,40,85,38.21996555398914,5.057706707981728,j,1,2.129990599991288,2,27,larger
1,4,standard/switch,20906.68824440188,10,113,-23.83479794,30.479004461502832,j,1,1.5451725000166334,2,28,larger
1,5,standard/switch,31040.68074671915,10,140,-16.71390068,50.111230393533226,j,1,0.5916943000047468,2,29,larger
1,8,standard/switch,13615.095328651263,17,85,-8.995342757,8.387433417892344,j,0,1.2454524000058882,2,30,larger
1,11,standard/switch,6126.105674500097,25,30,13.264524555129096,-38.2203846,f,1,0.6640819000313058,2,31,smaller
1,18,standard/switch,15747.887674588335,33,85,26.821232143487904,6.976824754974014,f,0,2.202163300011307,2,32,smaller
1,15,standard/switch,31420.28985902792,25,140,12.129448921922751,51.77476957,j,1,0.6680281000444666,2,33,larger
1,16,standard/switch,7634.070148223198,33,30,30.19684495481618,-38.42373928,f,1,0.6957934999954887,2,34,smaller
1,24,standard/switch,23454.2580870754,40,113,37.71162000489743,24.31290640287821,j,1,1.063065900001675,2,35,larger
1,3,standard/switch,12681.998677303796,10,85,-26.47077232,11.92758930596587,f,1,1.715994599973783,2,36,smaller
1,22,standard/switch,11823.383951785188,40,57,41.88083319458841,-14.98800492,f,1,1.1627675999770872,2,37,smaller
1,14,standard/switch,22180.47316573864,25,113,8.045214428,27.52140038259675,j,1,1.2970312000252306,2,38,larger
1,9,standard/switch,21501.12120769236,17,113,-5.541832691,31.07890857909637,j,1,1.474015199986752,2,39,larger
1,2,standard/switch,6783.483937263761,10,57,-24.53495333,-12.0763604,f,1,0.7320538000203669,2,40,smaller
2,22,switch/standard,11823.383951785188,40,57,41.88083319458841,-14.98800492,j,0,5.000896800003829,1,1,larger
2,17,switch/standard,10647.407281730188,33,57,26.21866752665977,-14.79865055,f,1,1.802897200002917,1,2,smaller
2,18,switch/standard,15747.887674588335,33,85,26.821232143487904,6.976824754974014,f,0,5.270579000003636,1,3,smaller
2,8,switch/standard,13615.095328651263,17,85,-8.995342757,8.387433417892344,f,1,7.422476599997026,1,4,smaller
2,10,switch/standard,31217.831665796573,17,140,-1.732665378,46.70107673091564,j,1,1.772129599994514,1,5,larger
2,4,switch/standard,20906.68824440188,10,113,-23.83479794,30.479004461502832,j,1,1.7854122999997344,1,6,larger
2,11,switch/standard,6126.105674500097,25,30,13.264524555129096,-38.2203846,f,1,1.734374799998477,1,7,smaller
2,5,switch/standard,31040.68074671915,10,140,-16.71390068,50.111230393533226,j,1,1.4774164000118617,1,8,larger
2,2,switch/standard,6783.483937263761,10,57,-24.53495333,-12.0763604,f,1,2.1434289000026183,1,9,smaller
2,16,switch/standard,7634.070148223198,33,30,30.19684495481618,-38.42373928,f,1,1.813835900000413,1,10,smaller
2,23,switch/standard,16680.984325935802,40,85,38.21996555398914,5.057706707981728,j,1,2.3211041999893496,1,11,larger
2,24,switch/standard,23454.2580870754,40,113,37.71162000489743,24.31290640287821,j,1,1.712245200003963,1,12,larger
2,20,switch/standard,31622.74805225926,33,140,26.14711175410772,43.96860584938808,j,1,1.4404075000056764,1,13,larger
2,21,switch/standard,8953.53906273091,40,30,45.13982813678688,-35.30081098,f,1,1.4677860999945551,1,14,smaller
2,6,switch/standard,4618.141200776996,17,30,-3.854444584,-37.8392214,f,1,1.8287870999920417,1,15,smaller
2,12,switch/standard,9303.433944524471,25,57,9.177647168036223,-16.07892918,f,1,1.496150499995565,1,16,smaller
2,15,switch/standard,31420.28985902792,25,140,12.129448921922751,51.77476957,j,1,1.0977535999991233,1,17,larger
2,9,switch/standard,21501.12120769236,17,113,-5.541832691,31.07890857909637,j,1,1.6506737000017893,1,18,larger
2,14,switch/standard,22180.47316573864,25,113,8.045214428,27.52140038259675,j,1,1.1011257999925874,1,19,larger
2,3,switch/standard,12681.998677303796,10,85,-26.47077232,11.92758930596587,j,0,5.086742400002549,1,20,larger
2,8,switch/standard,13615.095328651263,17,85,-8.995342757,8.387433417892344,f,1,1.2604463000025137,2,21,smaller
2,14,switch/standard,22180.47316573864,25,113,8.045214428,27.52140038259675,f,0,1.2866057000064757,2,22,smaller
2,9,switch/standard,21501.12120769236,17,113,-5.541832691,31.07890857909637,j,1,0.9111693000013474,2,23,larger
2,21,switch/standard,8953.53906273091,40,30,45.13982813678688,-35.30081098,f,1,1.3188999999983937,2,24,smaller
2,22,switch/standard,11823.383951785188,40,57,41.88083319458841,-14.98800492,f,1,0.9105971999961184,2,25,smaller
2,5,switch/standard,31040.68074671915,10,140,-16.71390068,50.111230393533226,j,1,0.8637216999923112,2,26,larger
2,4,switch/standard,20906.68824440188,10,113,-23.83479794,30.479004461502832,j,1,0.8670421999995597,2,27,larger
2,17,switch/standard,10647.407281730188,33,57,26.21866752665977,-14.79865055,f,1,1.4934034000034444,2,28,smaller
2,3,switch/standard,12681.998677303796,10,85,-26.47077232,11.92758930596587,f,1,1.3098449999961304,2,29,smaller
2,23,switch/standard,16680.984325935802,40,85,38.21996555398914,5.057706707981728,f,0,3.6777524999924935,2,30,smaller
2,10,switch/standard,31217.831665796573,17,140,-1.732665378,46.70107673091564,j,1,0.9170863000035752,2,31,larger
2,2,switch/standard,6783.483937263761,10,57,-24.53495333,-12.0763604,f,1,2.0533455000113463,2,32,smaller
2,16,switch/standard,7634.070148223198,33,30,30.19684495481618,-38.42373928,f,1,2.0706126000004588,2,33,smaller
2,18,switch/standard,15747.887674588335,33,85,26.821232143487904,6.976824754974014,f,0,4.791999499997473,2,34,smaller
2,12,switch/standard,9303.433944524471,25,57,9.177647168036223,-16.07892918,j,0,1.7218657000048552,2,35,larger
2,15,switch/standard,31420.28985902792,25,140,12.129448921922751,51.77476957,j,1,0.8321355000080075,2,36,larger
2,11,switch/standard,6126.105674500097,25,30,13.264524555129096,-38.2203846,f,1,0.749285099998815,2,37,smaller
2,6,switch/standard,4618.141200776996,17,30,-3.854444584,-37.8392214,f,1,0.8681725000060396,2,38,smaller
2,24,switch/standard,23454.2580870754,40,113,37.71162000489743,24.31290640287821,j,1,0.9875199999951292,2,39,larger
2,20,switch/standard,31622.74805225926,33,140,26.14711175410772,43.96860584938808,j,1,0.8001844999962486,2,40,larger
3,22,standard/switch,11823.383951785188,40,57,41.88083319458841,-14.98800492,j,0,2.91951410000911,1,1,larger
3,4,standard/switch,20906.68824440188,10,113,-23.83479794,30.479004461502832,j,1,1.9256154000177048,1,2,larger
3,20,standard/switch,31622.74805225926,33,140,26.14711175410772,43.96860584938808,j,1,1.028692299965769,1,3,larger
3,6,standard/switch,4618.141200776996,17,30,-3.854444584,-37.8392214,f,1,1.193223999987822,1,4,smaller
3,9,standard/switch,21501.12120769236,17,113,-5.541832691,31.07890857909637,j,1,0.9984733000164852,1,5,larger
3,23,standard/switch,16680.984325935802,40,85,38.21996555398914,5.057706707981728,j,1,2.3160488000139594,1,6,larger
3,10,standard/switch,31217.831665796573,17,140,-1.732665378,46.70107673091564,j,1,1.05084809998516,1,7,larger
3,17,standard/switch,10647.407281730188,33,57,26.21866752665977,-14.79865055,f,1,1.7095731999725103,1,8,smaller
3,2,standard/switch,6783.483937263761,10,57,-24.53495333,-12.0763604,f,1,2.053395399998408,1,9,smaller
3,3,standard/switch,12681.998677303796,10,85,-26.47077232,11.92758930596587,j,0,1.2234499999904074,1,10,larger
3,12,standard/switch,9303.433944524471,25,57,9.177647168036223,-16.07892918,j,0,3.506623200024478,1,11,larger
3,14,standard/switch,22180.47316573864,25,113,8.045214428,27.52140038259675,j,1,1.2314133999752812,1,12,larger
3,11,standard/switch,6126.105674500097,25,30,13.264524555129096,-38.2203846,f,1,3.4844583999947645,1,13,smaller
3,18,standard/switch,15747.887674588335,33,85,26.821232143487904,6.976824754974014,j,1,1.043141399975866,1,14,larger
3,8,standard/switch,13615.095328651263,17,85,-8.995342757,8.387433417892344,j,0,1.1344313999870792,1,15,larger
3,15,standard/switch,31420.28985902792,25,140,12.129448921922751,51.77476957,j,1,3.1337951000314206,1,16,larger
3,16,standard/switch,7634.070148223198,33,30,30.19684495481618,-38.42373928,j,0,3.362995400035288,1,17,larger
3,24,standard/switch,23454.2580870754,40,113,37.71162000489743,24.31290640287821,j,1,0.7748954999842681,1,18,larger
3,21,standard/switch,8953.53906273091,40,30,45.13982813678688,-35.30081098,j,0,1.853691499971319,1,19,larger
3,5,standard/switch,31040.68074671915,10,140,-16.71390068,50.111230393533226,j,1,0.8225144000025466,1,20,larger
3,16,standard/switch,7634.070148223198,33,30,30.19684495481618,-38.42373928,f,1,1.074408799991943,2,21,smaller
3,5,standard/switch,31040.68074671915,10,140,-16.71390068,50.111230393533226,j,1,1.0045593000249935,2,22,larger
3,17,standard/switch,10647.407281730188,33,57,26.21866752665977,-14.79865055,j,0,1.5209194000344723,2,23,larger
3,3,standard/switch,12681.998677303796,10,85,-26.47077232,11.92758930596587,j,0,1.5435493999975731,2,24,larger
3,12,standard/switch,9303.433944524471,25,57,9.177647168036223,-16.07892918,f,1,4.277631300035864,2,25,smaller
3,15,standard/switch,31420.28985902792,25,140,12.129448921922751,51.77476957,j,1,0.956496300001163,2,26,larger
3,8,standard/switch,13615.095328651263,17,85,-8.995342757,8.387433417892344,j,0,1.5869062999845482,2,27,larger
3,11,standard/switch,6126.105674500097,25,30,13.264524555129096,-38.2203846,f,1,1.9997032000101171,2,28,smaller
3,18,standard/switch,15747.887674588335,33,85,26.821232143487904,6.976824754974014,j,1,1.0116011999780312,2,29,larger
3,6,standard/switch,4618.141200776996,17,30,-3.854444584,-37.8392214,f,1,1.1364265999873169,2,30,smaller
3,9,standard/switch,21501.12120769236,17,113,-5.541832691,31.07890857909637,j,1,1.6069061000016518,2,31,larger
3,21,standard/switch,8953.53906273091,40,30,45.13982813678688,-35.30081098,j,0,1.71537079999689,2,32,larger
3,4,standard/switch,20906.68824440188,10,113,-23.83479794,30.479004461502832,j,1,1.1383335000136867,2,33,larger
3,24,standard/switch,23454.2580870754,40,113,37.71162000489743,24.31290640287821,j,1,1.057510500017088,2,34,larger
3,22,standard/switch,11823.383951785188,40,57,41.88083319458841,-14.98800492,j,0,2.5958715000306256,2,35,larger
3,23,standard/switch,16680.984325935802,40,85,38.21996555398914,5.057706707981728,j,1,1.2152883000089787,2,36,larger
3,2,standard/switch,6783.483937263761,10,57,-24.53495333,-12.0763604,f,1,2.628304100013338,2,37,smaller
3,10,standard/switch,31217.831665796573,17,140,-1.732665378,46.70107673091564,j,1,0.6458447999903001,2,38,larger
3,20,standard/switch,31622.74805225926,33,140,26.14711175410772,43.96860584938808,j,1,0.857668399985414,2,39,larger
3,14,standard/switch,22180.47316573864,25,113,8.045214428,27.52140038259675,j,1,0.5481070000096224,2,40,larger
4,11,switch/standard,6126.105674500097,25,30,13.264524555129096,-38.2203846,f,1,4.999957599968184,1,1,smaller
4,17,switch/standard,10647.407281730188,33,57,26.21866752665977,-14.79865055,j,0,3.3131522000185214,1,2,larger
4,15,switch/standard,31420.28985902792,25,140,12.129448921922751,51.77476957,j,1,1.1517430000239983,1,3,larger
4,6,switch/standard,4618.141200776996,17,30,-3.854444584,-37.8392214,f,1,0.6945977000286803,1,4,smaller
4,5,switch/standard,31040.68074671915,10,140,-16.71390068,50.111230393533226,j,1,0.6082446999498643,1,5,larger
4,20,switch/standard,31622.74805225926,33,140,26.14711175410772,43.96860584938808,j,1,0.7087057000026107,1,6,larger
4,2,switch/standard,6783.483937263761,10,57,-24.53495333,-12.0763604,f,1,1.0933609000057911,1,7,smaller
4,16,switch/standard,7634.070148223198,33,30,30.19684495481618,-38.42373928,f,1,0.6789073999971151,1,8,smaller
4,9,switch/standard,21501.12120769236,17,113,-5.541832691,31.07890857909637,j,1,0.47974199999589473,1,9,larger
4,21,switch/standard,8953.53906273091,40,30,45.13982813678688,-35.30081098,f,1,0.6179563000332564,1,10,smaller
4,22,switch/standard,11823.383951785188,40,57,41.88083319458841,-14.98800492,f,1,1.5101362999994308,1,11,smaller
4,10,switch/standard,31217.831665796573,17,140,-1.732665378,46.70107673091564,j,1,0.5508046000031754,1,12,larger
4,24,switch/standard,23454.2580870754,40,113,37.71162000489743,24.31290640287821,j,1,1.0143838999792931,1,13,larger
4,23,switch/standard,16680.984325935802,40,85,38.21996555398914,5.057706707981728,j,1,0.7468475999776274,1,14,larger
4,18,switch/standard,15747.887674588335,33,85,26.821232143487904,6.976824754974014,j,1,0.4669901000452228,1,15,larger
4,4,switch/standard,20906.68824440188,10,113,-23.83479794,30.479004461502832,j,1,0.3814369000028819,1,16,larger
4,14,switch/standard,22180.47316573864,25,113,8.045214428,27.52140038259675,j,1,0.3630953000392765,1,17,larger
4,12,switch/standard,9303.433944524471,25,57,9.177647168036223,-16.07892918,f,1,0.6900886000366881,1,18,smaller
4,8,switch/standard,13615.095328651263,17,85,-8.995342757,8.387433417892344,j,0,0.8193658999516629,1,19,larger
4,3,switch/standard,12681.998677303796,10,85,-26.47077232,11.92758930596587,f,1,0.5985556000377983,1,20,smaller
4,3,switch/standard,12681.998677303796,10,85,-26.47077232,11.92758930596587,f,1,0.4118229000014253,2,21,smaller
4,15,switch/standard,31420.28985902792,25,140,12.129448921922751,51.77476957,j,1,0.5766250000451691,2,22,larger
4,4,switch/standard,20906.68824440188,10,113,-23.83479794,30.479004461502832,j,1,0.5517799000372179,2,23,larger
4,12,switch/standard,9303.433944524471,25,57,9.177647168036223,-16.07892918,f,1,0.4297939000534825,2,24,smaller
4,17,switch/standard,10647.407281730188,33,57,26.21866752665977,-14.79865055,f,1,0.4021063999971375,2,25,smaller
4,5,switch/standard,31040.68074671915,10,140,-16.71390068,50.111230393533226,j,1,0.4625847000279464,2,26,larger
4,18,switch/standard,15747.887674588335,33,85,26.821232143487904,6.976824754974014,f,0,0.46579809999093413,2,27,smaller
4,8,switch/standard,13615.095328651263,17,85,-8.995342757,8.387433417892344,f,1,0.8195561000029556,2,28,smaller
4,21,switch/standard,8953.53906273091,40,30,45.13982813678688,-35.30081098,f,1,0.4625615000259131,2,29,smaller
4,16,switch/standard,7634.070148223198,33,30,30.19684495481618,-38.42373928,f,1,0.5697963000275195,2,30,smaller
4,11,switch/standard,6126.105674500097,25,30,13.264524555129096,-38.2203846,f,1,0.4725181999965571,2,31,smaller
4,6,switch/standard,4618.141200776996,17,30,-3.854444584,-37.8392214,f,1,0.4435957999667153,2,32,smaller
4,14,switch/standard,22180.47316573864,25,113,8.045214428,27.52140038259675,j,1,0.5431745999958366,2,33,larger
4,9,switch/standard,21501.12120769236,17,113,-5.541832691,31.07890857909637,f,0,0.7498057999764569,2,34,smaller
4,24,switch/standard,23454.2580870754,40,113,37.71162000489743,24.31290640287821,j,1,0.6757636000402272,2,35,larger
4,10,switch/standard,31217.831665796573,17,140,-1.732665378,46.70107673091564,j,1,0.6952350999927148,2,36,larger
4,20,switch/standard,31622.74805225926,33,140,26.14711175410772,43.96860584938808,j,1,0.5744841000414453,2,37,larger
4,22,switch/standard,11823.383951785188,40,57,41.88083319458841,-14.98800492,f,1,0.5826317999744788,2,38,smaller
4,23,switch/standard,16680.984325935802,40,85,38.21996555398914,5.057706707981728,f,0,0.795786400034558,2,39,smaller
4,2,switch/standard,6783.483937263761,10,57,-24.53495333,-12.0763604,f,1,0.8324608000111766,2,40,smaller
5,9,standard/switch,21501.12120769236,17,113,-5.541832691,31.07890857909637,j,1,2.464658100041561,1,1,larger
5,18,standard/switch,15747.887674588335,33,85,26.821232143487904,6.976824754974014,f,0,0.7398654000135139,1,2,smaller
5,3,standard/switch,12681.998677303796,10,85,-26.47077232,11.92758930596587,f,1,2.049580299993977,1,3,smaller
5,22,standard/switch,11823.383951785188,40,57,41.88083319458841,-14.98800492,f,1,1.7087759000132792,1,4,smaller
5,21,standard/switch,8953.53906273091,40,30,45.13982813678688,-35.30081098,f,1,0.5559107000008225,1,5,smaller
5,5,standard/switch,31040.68074671915,10,140,-16.71390068,50.111230393533226,j,1,0.579761500004679,1,6,larger
5,24,standard/switch,23454.2580870754,40,113,37.71162000489743,24.31290640287821,j,1,1.0415691999951378,1,7,larger
5,6,standard/switch,4618.141200776996,17,30,-3.854444584,-37.8392214,f,1,0.4686375000164844,1,8,smaller
5,4,standard/switch,20906.68824440188,10,113,-23.83479794,30.479004461502832,j,1,0.8639225999941118,1,9,larger
5,2,standard/switch,6783.483937263761,10,57,-24.53495333,-12.0763604,f,1,0.4811745000188239,1,10,smaller
5,16,standard/switch,7634.070148223198,33,30,30.19684495481618,-38.42373928,f,1,0.627393500006292,1,11,smaller
5,10,standard/switch,31217.831665796573,17,140,-1.732665378,46.70107673091564,j,1,0.471436400024686,1,12,larger
5,14,standard/switch,22180.47316573864,25,113,8.045214428,27.52140038259675,j,1,0.8661827999749221,1,13,larger
5,20,standard/switch,31622.74805225926,33,140,26.14711175410772,43.96860584938808,j,1,1.0760629000142217,1,14,larger
5,8,standard/switch,13615.095328651263,17,85,-8.995342757,8.387433417892344,j,0,0.9421743000275457,1,15,larger
5,17,standard/switch,10647.407281730188,33,57,26.21866752665977,-14.79865055,f,1,0.6288003000081517,1,16,smaller
5,11,standard/switch,6126.105674500097,25,30,13.264524555129096,-38.2203846,f,1,0.49781470000743866,1,17,smaller
5,12,standard/switch,9303.433944524471,25,57,9.177647168036223,-16.07892918,f,1,2.1151254000142217,1,18,smaller
5,23,standard/switch,16680.984325935802,40,85,38.21996555398914,5.057706707981728,f,0,1.0586014000000432,1,19,smaller
5,15,standard/switch,31420.28985902792,25,140,12.129448921922751,51.77476957,j,1,0.443033599993214,1,20,larger
5,22,standard/switch,11823.383951785188,40,57,41.88083319458841,-14.98800492,j,0,0.49543939996510744,2,21,larger
5,21,standard/switch,8953.53906273091,40,30,45.13982813678688,-35.30081098,f,1,0.6166415000334382,2,22,smaller
5,18,standard/switch,15747.887674588335,33,85,26.821232143487904,6.976824754974014,j,1,0.7571401000022888,2,23,larger
5,8,standard/switch,13615.095328651263,17,85,-8.995342757,8.387433417892344,j,0,0.6358285999740474,2,24,larger
5,11,standard/switch,6126.105674500097,25,30,13.264524555129096,-38.2203846,f,1,0.5745679000392556,2,25,smaller
5,9,standard/switch,21501.12120769236,17,113,-5.541832691,31.07890857909637,j,1,0.6769607000169344,2,26,larger
5,17,standard/switch,10647.407281730188,33,57,26.21866752665977,-14.79865055,f,1,1.1670749999466352,2,27,smaller
5,14,standard/switch,22180.47316573864,25,113,8.045214428,27.52140038259675,j,1,0.5968321000109427,2,28,larger
5,16,standard/switch,7634.070148223198,33,30,30.19684495481618,-38.42373928,f,1,0.6021187999867834,2,29,smaller
5,4,standard/switch,20906.68824440188,10,113,-23.83479794,30.479004461502832,j,1,1.2156132999807596,2,30,larger
5,10,standard/switch,31217.831665796573,17,140,-1.732665378,46.70107673091564,j,1,0.7799757000175305,2,31,larger
5,5,standard/switch,31040.68074671915,10,140,-16.71390068,50.111230393533226,j,1,0.48943230003351346,2,32,larger
5,24,standard/switch,23454.2580870754,40,113,37.71162000489743,24.31290640287821,j,1,0.6989864999777637,2,33,larger
5,12,standard/switch,9303.433944524471,25,57,9.177647168036223,-16.07892918,f,1,0.8527224999852479,2,34,smaller
5,6,standard/switch,4618.141200776996,17,30,-3.854444584,-37.8392214,f,1,0.6478200999554247,2,35,smaller
5,2,standard/switch,6783.483937263761,10,57,-24.53495333,-12.0763604,f,1,0.906540700001642,2,36,smaller
5,20,standard/switch,31622.74805225926,33,140,26.14711175410772,43.96860584938808,j,1,0.563432399998419,2,37,larger
5,3,standard/switch,12681.998677303796,10,85,-26.47077232,11.92758930596587,f,1,0.8981001999927685,2,38,smaller
5,15,standard/switch,31420.28985902792,25,140,12.129448921922751,51.77476957,j,1,0.47439050005050376,2,39,larger
5,23,standard/switch,16680.984325935802,40,85,38.21996555398914,5.057706707981728,f,0,0.6620033000363037,2,40,smaller
6,3,switch/standard,12681.998677303796,10,85,-26.47077232,11.92758930596587,j,0,4.288950099959038,1,1,larger
6,22,switch/standard,11823.383951785188,40,57,41.88083319458841,-14.98800492,f,1,1.1591988000436686,1,2,smaller
6,18,switch/standard,15747.887674588335,33,85,26.821232143487904,6.976824754974014,f,0,1.109666100004688,1,3,smaller
6,15,switch/standard,31420.28985902792,25,140,12.129448921922751,51.77476957,j,1,1.324905999994371,1,4,larger
6,5,switch/standard,31040.68074671915,10,140,-16.71390068,50.111230393533226,j,1,0.38851630000863224,1,5,larger
6,16,switch/standard,7634.070148223198,33,30,30.19684495481618,-38.42373928,f,1,0.5309517999994569,1,6,smaller
6,24,switch/standard,23454.2580870754,40,113,37.71162000489743,24.31290640287821,j,1,0.3867587000131607,1,7,larger
6,2,switch/standard,6783.483937263761,10,57,-24.53495333,-12.0763604,f,1,0.5677051999955438,1,8,smaller
6,21,switch/standard,8953.53906273091,40,30,45.13982813678688,-35.30081098,f,1,0.6309487000107765,1,9,smaller
6,20,switch/standard,31622.74805225926,33,140,26.14711175410772,43.96860584938808,j,1,0.4900826000375673,1,10,larger
6,12,switch/standard,9303.433944524471,25,57,9.177647168036223,-16.07892918,f,1,1.813188900006935,1,11,smaller
6,17,switch/standard,10647.407281730188,33,57,26.21866752665977,-14.79865055,f,1,0.928017100028228,1,12,smaller
6,14,switch/standard,22180.47316573864,25,113,8.045214428,27.52140038259675,j,1,0.7602840999606997,1,13,larger
6,6,switch/standard,4618.141200776996,17,30,-3.854444584,-37.8392214,f,1,0.6230310000246391,1,14,smaller
6,9,switch/standard,21501.12120769236,17,113,-5.541832691,31.07890857909637,j,1,0.5394293999997899,1,15,larger
6,8,switch/standard,13615.095328651263,17,85,-8.995342757,8.387433417892344,j,0,1.378406999981962,1,16,larger
6,11,switch/standard,6126.105674500097,25,30,13.264524555129096,-38.2203846,f,1,0.903855700045824,1,17,smaller
6,10,switch/standard,31217.831665796573,17,140,-1.732665378,46.70107673091564,j,1,0.7363537999917753,1,18,larger
6,23,switch/standard,16680.984325935802,40,85,38.21996555398914,5.057706707981728,f,0,2.3033606999670155,1,19,smaller
6,4,switch/standard,20906.68824440188,10,113,-23.83479794,30.479004461502832,j,1,1.6460234000114724,1,20,larger
6,8,switch/standard,13615.095328651263,17,85,-8.995342757,8.387433417892344,j,0,1.8808769999886863,2,21,larger
6,11,switch/standard,6126.105674500097,25,30,13.264524555129096,-38.2203846,f,1,0.8580941999680363,2,22,smaller
6,18,switch/standard,15747.887674588335,33,85,26.821232143487904,6.976824754974014,j,1,2.251698000007309,2,23,larger
6,24,switch/standard,23454.2580870754,40,113,37.71162000489743,24.31290640287821,j,1,0.8861851000110619,2,24,larger
6,16,switch/standard,7634.070148223198,33,30,30.19684495481618,-38.42373928,f,1,0.5599420000216924,2,25,smaller
6,5,switch/standard,31040.68074671915,10,140,-16.71390068,50.111230393533226,j,1,0.5421147000161,2,26,larger
6,23,switch/standard,16680.984325935802,40,85,38.21996555398914,5.057706707981728,f,0,1.1259491000091657,2,27,smaller
6,14,switch/standard,22180.47316573864,25,113,8.045214428,27.52140038259675,j,1,1.5166775999823583,2,28,larger
6,4,switch/standard,20906.68824440188,10,113,-23.83479794,30.479004461502832,j,1,0.988673599960748,2,29,larger
6,22,switch/standard,11823.383951785188,40,57,41.88083319458841,-14.98800492,f,1,0.609630599967204,2,30,smaller
6,15,switch/standard,31420.28985902792,25,140,12.129448921922751,51.77476957,j,1,0.727395299996715,2,31,larger
6,9,switch/standard,21501.12120769236,17,113,-5.541832691,31.07890857909637,j,1,2.751213799987454,2,32,larger
6,6,switch/standard,4618.141200776996,17,30,-3.854444584,-37.8392214,f,1,0.7252330000046641,2,33,smaller
6,21,switch/standard,8953.53906273091,40,30,45.13982813678688,-35.30081098,f,1,0.653378699964378,2,34,smaller
6,10,switch/standard,31217.831665796573,17,140,-1.732665378,46.70107673091564,j,1,0.5988759999745525,2,35,larger
6,2,switch/standard,6783.483937263761,10,57,-24.53495333,-12.0763604,f,1,0.4766444999841042,2,36,smaller
6,20,switch/standard,31622.74805225926,33,140,26.14711175410772,43.96860584938808,j,1,0.8233999000512995,2,37,larger
6,12,switch/standard,9303.433944524471,25,57,9.177647168036223,-16.07892918,f,1,0.7871222000103444,2,38,smaller
6,17,switch/standard,10647.407281730188,33,57,26.21866752665977,-14.79865055,f,1,0.5601621000096202,2,39,smaller
6,3,switch/standard,12681.998677303796,10,85,-26.47077232,11.92758930596587,f,1,1.111264800012577,2,40,smaller
7,9,standard/switch,21501.12120769236,17,113,-5.541832691,31.07890857909637,f,0,0.900706899992656,1,1,smaller
7,18,standard/switch,15747.887674588335,33,85,26.821232143487904,6.976824754974014,j,1,1.949093199975323,1,2,larger
7,2,standard/switch,6783.483937263761,10,57,-24.53495333,-12.0763604,f,1,1.7080289000296034,1,3,smaller
7,24,standard/switch,23454.2580870754,40,113,37.71162000489743,24.31290640287821,j,1,0.5715550000313669,1,4,larger
7,22,standard/switch,11823.383951785188,40,57,41.88083319458841,-14.98800492,j,0,0.706577000033576,1,5,larger
7,15,standard/switch,31420.28985902792,25,140,12.129448921922751,51.77476957,j,1,1.4657897000433875,1,6,larger
7,10,standard/switch,31217.831665796573,17,140,-1.732665378,46.70107673091564,j,1,0.419991500035394,1,7,larger
7,4,standard/switch,20906.68824440188,10,113,-23.83479794,30.479004461502832,j,1,1.2410653000115417,1,8,larger
7,14,standard/switch,22180.47316573864,25,113,8.045214428,27.52140038259675,j,1,0.5469370000064373,1,9,larger
7,8,standard/switch,13615.095328651263,17,85,-8.995342757,8.387433417892344,j,0,1.8181788000511008,1,10,larger
7,5,standard/switch,31040.68074671915,10,140,-16.71390068,50.111230393533226,j,1,0.9258551000384614,1,11,larger
7,21,standard/switch,8953.53906273091,40,30,45.13982813678688,-35.30081098,f,1,0.6530894000316039,1,12,smaller
7,16,standard/switch,7634.070148223198,33,30,30.19684495481618,-38.42373928,f,1,0.5204164999886416,1,13,smaller
7,20,standard/switch,31622.74805225926,33,140,26.14711175410772,43.96860584938808,j,1,0.9431734000099824,1,14,larger
7,3,standard/switch,12681.998677303796,10,85,-26.47077232,11.92758930596587,f,1,1.959946499962825,1,15,smaller
7,17,standard/switch,10647.407281730188,33,57,26.21866752665977,-14.79865055,f,1,1.6364250000333411,1,16,smaller
7,6,standard/switch,4618.141200776996,17,30,-3.854444584,-37.8392214,f,1,0.8316081000375561,1,17,smaller
7,23,standard/switch,16680.984325935802,40,85,38.21996555398914,5.057706707981728,j,1,1.0834889999823645,1,18,larger
7,12,standard/switch,9303.433944524471,25,57,9.177647168036223,-16.07892918,f,1,1.3968095000018366,1,19,smaller
7,11,standard/switch,6126.105674500097,25,30,13.264524555129096,-38.2203846,f,1,0.8021515000145882,1,20,smaller
7,10,standard/switch,31217.831665796573,17,140,-1.732665378,46.70107673091564,j,1,0.966414700029418,2,21,larger
7,11,standard/switch,6126.105674500097,25,30,13.264524555129096,-38.2203846,f,1,0.6534724999801256,2,22,smaller
7,12,standard/switch,9303.433944524471,25,57,9.177647168036223,-16.07892918,f,1,1.3280245999922045,2,23,smaller
7,4,standard/switch,20906.68824440188,10,113,-23.83479794,30.479004461502832,j,1,1.13549710001098,2,24,larger
7,14,standard/switch,22180.47316573864,25,113,8.045214428,27.52140038259675,j,1,0.5970842000097036,2,25,larger
7,23,standard/switch,16680.984325935802,40,85,38.21996555398914,5.057706707981728,j,1,0.6359584999736398,2,26,larger
7,5,standard/switch,31040.68074671915,10,140,-16.71390068,50.111230393533226,j,1,0.6788293999852613,2,27,larger
7,21,standard/switch,8953.53906273091,40,30,45.13982813678688,-35.30081098,f,1,0.5376433999626897,2,28,smaller
7,16,standard/switch,7634.070148223198,33,30,30.19684495481618,-38.42373928,f,1,0.8259126000339165,2,29,smaller
7,24,standard/switch,23454.2580870754,40,113,37.71162000489743,24.31290640287821,j,1,0.5330282999784686,2,30,larger
7,2,standard/switch,6783.483937263761,10,57,-24.53495333,-12.0763604,f,1,0.7899455999722704,2,31,smaller
7,15,standard/switch,31420.28985902792,25,140,12.129448921922751,51.77476957,j,1,0.6350298000033945,2,32,larger
7,17,standard/switch,10647.407281730188,33,57,26.21866752665977,-14.79865055,f,1,1.2367164999595843,2,33,smaller
7,20,standard/switch,31622.74805225926,33,140,26.14711175410772,43.96860584938808,j,1,0.839858399995137,2,34,larger
7,3,standard/switch,12681.998677303796,10,85,-26.47077232,11.92758930596587,f,1,0.7945535000180826,2,35,smaller
7,6,standard/switch,4618.141200776996,17,30,-3.854444584,-37.8392214,f,1,0.4726990000344813,2,36,smaller
7,18,standard/switch,15747.887674588335,33,85,26.821232143487904,6.976824754974014,f,0,1.266665999952238,2,37,smaller
7,9,standard/switch,21501.12120769236,17,113,-5.541832691,31.07890857909637,f,0,0.6831799999927171,2,38,smaller
7,8,standard/switch,13615.095328651263,17,85,-8.995342757,8.387433417892344,f,1,1.22121160000097,2,39,smaller
7,22,standard/switch,11823.383951785188,40,57,41.88083319458841,-14.98800492,f,1,0.6963857000228018,2,40,smaller
8,20,switch/standard,31622.74805225926,33,140,26.14711175410772,43.96860584938808,j,1,1.8981232999940405,1,1,larger
8,24,switch/standard,23454.2580870754,40,113,37.71162000489743,24.31290640287821,j,1,1.3881268000113778,1,2,larger
8,21,switch/standard,8953.53906273091,40,30,45.13982813678688,-35.30081098,f,1,5.632855199975893,1,3,smaller
8,4,switch/standard,20906.68824440188,10,113,-23.83479794,30.479004461502832,j,1,2.3528753999853507,1,4,larger
8,14,switch/standard,22180.47316573864,25,113,8.045214428,27.52140038259675,j,1,2.126310600026045,1,5,larger
8,17,switch/standard,10647.407281730188,33,57,26.21866752665977,-14.79865055,f,1,2.38187330000801,1,6,smaller
8,5,switch/standard,31040.68074671915,10,140,-16.71390068,50.111230393533226,j,1,1.378384699986782,1,7,larger
8,10,switch/standard,31217.831665796573,17,140,-1.732665378,46.70107673091564,j,1,1.2959133999538608,1,8,larger
8,18,switch/standard,15747.887674588335,33,85,26.821232143487904,6.976824754974014,j,1,1.104365700040944,1,9,larger
8,3,switch/standard,12681.998677303796,10,85,-26.47077232,11.92758930596587,j,0,1.2571565000107512,1,10,larger
8,2,switch/standard,6783.483937263761,10,57,-24.53495333,-12.0763604,f,1,1.0345993000082672,1,11,smaller
8,23,switch/standard,16680.984325935802,40,85,38.21996555398914,5.057706707981728,j,1,1.8526740000233983,1,12,larger
8,11,switch/standard,6126.105674500097,25,30,13.264524555129096,-38.2203846,j,0,1.8867214000201784,1,13,larger
8,6,switch/standard,4618.141200776996,17,30,-3.854444584,-37.8392214,f,1,1.174970799998846,1,14,smaller
8,9,switch/standard,21501.12120769236,17,113,-5.541832691,31.07890857909637,j,1,1.084808300016448,1,15,larger
8,12,switch/standard,9303.433944524471,25,57,9.177647168036223,-16.07892918,j,0,1.7342608999460936,1,16,larger
8,8,switch/standard,13615.095328651263,17,85,-8.995342757,8.387433417892344,j,0,1.5884806000394749,1,17,larger
8,16,switch/standard,7634.070148223198,33,30,30.19684495481618,-38.42373928,f,1,1.3289167999755591,1,18,smaller
8,22,switch/standard,11823.383951785188,40,57,41.88083319458841,-14.98800492,f,1,2.968141100020148,1,19,smaller
8,15,switch/standard,31420.28985902792,25,140,12.129448921922751,51.77476957,j,1,1.0380137999891303,1,20,larger
8,11,switch/standard,6126.105674500097,25,30,13.264524555129096,-38.2203846,f,1,0.8882802000152878,2,21,smaller
8,5,switch/standard,31040.68074671915,10,140,-16.71390068,50.111230393533226,j,1,3.322004300018307,2,22,larger
8,24,switch/standard,23454.2580870754,40,113,37.71162000489743,24.31290640287821,j,1,1.5845280999783429,2,23,larger
8,22,switch/standard,11823.383951785188,40,57,41.88083319458841,-14.98800492,j,0,2.6455591000267304,2,24,larger
8,17,switch/standard,10647.407281730188,33,57,26.21866752665977,-14.79865055,f,1,1.581949799961876,2,25,smaller
8,2,switch/standard,6783.483937263761,10,57,-24.53495333,-12.0763604,f,1,2.11521839996567,2,26,smaller
8,9,switch/standard,21501.12120769236,17,113,-5.541832691,31.07890857909637,j,1,1.4272790999966674,2,27,larger
8,16,switch/standard,7634.070148223198,33,30,30.19684495481618,-38.42373928,f,1,3.6469464000547305,2,28,smaller
8,18,switch/standard,15747.887674588335,33,85,26.821232143487904,6.976824754974014,j,1,8.36824110004818,2,29,larger
8,3,switch/standard,12681.998677303796,10,85,-26.47077232,11.92758930596587,j,0,3.665014899976086,2,30,larger
8,6,switch/standard,4618.141200776996,17,30,-3.854444584,-37.8392214,f,1,1.0407354999915697,2,31,smaller
8,8,switch/standard,13615.095328651263,17,85,-8.995342757,8.387433417892344,f,1,0.9640814000158572,2,32,smaller
8,21,switch/standard,8953.53906273091,40,30,45.13982813678688,-35.30081098,f,1,3.3549479999928735,2,33,smaller
8,20,switch/standard,31622.74805225926,33,140,26.14711175410772,43.96860584938808,j,1,1.351841500028968,2,34,larger
8,12,switch/standard,9303.433944524471,25,57,9.177647168036223,-16.07892918,f,1,4.021239699970465,2,35,smaller
8,10,switch/standard,31217.831665796573,17,140,-1.732665378,46.70107673091564,j,1,6.831199199950788,2,36,larger
8,4,switch/standard,20906.68824440188,10,113,-23.83479794,30.479004461502832,j,1,11.310072999971451,2,37,larger
8,15,switch/standard,31420.28985902792,25,140,12.129448921922751,51.77476957,j,1,1.623629699985031,2,38,larger
8,14,switch/standard,22180.47316573864,25,113,8.045214428,27.52140038259675,j,1,3.611270199995488,2,39,larger
8,23,switch/standard,16680.984325935802,40,85,38.21996555398914,5.057706707981728,j,1,1.396711699955631,2,40,larger
9,10,standard/switch,31217.831665796573,17,140,-1.732665378,46.70107673091564,j,1,2.3966731000109576,1,1,larger
9,21,standard/switch,8953.53906273091,40,30,45.13982813678688,-35.30081098,f,1,5.986066700017545,1,2,smaller
9,23,standard/switch,16680.984325935802,40,85,38.21996555398914,5.057706707981728,f,0,2.5954308999935165,1,3,smaller
9,12,standard/switch,9303.433944524471,25,57,9.177647168036223,-16.07892918,f,1,1.7906587999896146,1,4,smaller
9,4,standard/switch,20906.68824440188,10,113,-23.83479794,30.479004461502832,j,1,0.8428841999848373,1,5,larger
9,17,standard/switch,10647.407281730188,33,57,26.21866752665977,-14.79865055,j,0,1.494931599998381,1,6,larger
9,5,standard/switch,31040.68074671915,10,140,-16.71390068,50.111230393533226,j,1,1.2622962000314146,1,7,larger
9,24,standard/switch,23454.2580870754,40,113,37.71162000489743,24.31290640287821,j,1,1.0886202999972738,1,8,larger
9,20,standard/switch,31622.74805225926,33,140,26.14711175410772,43.96860584938808,j,1,1.3057983000180684,1,9,larger
9,22,standard/switch,11823.383951785188,40,57,41.88083319458841,-14.98800492,f,1,1.0017825999530032,1,10,smaller
9,3,standard/switch,12681.998677303796,10,85,-26.47077232,11.92758930596587,f,1,3.2382115999935195,1,11,smaller
9,18,standard/switch,15747.887674588335,33,85,26.821232143487904,6.976824754974014,f,0,1.4005292000365444,1,12,smaller
9,15,standard/switch,31420.28985902792,25,140,12.129448921922751,51.77476957,j,1,0.619691799976863,1,13,larger
9,16,standard/switch,7634.070148223198,33,30,30.19684495481618,-38.42373928,f,1,0.9370343000045978,1,14,smaller
9,2,standard/switch,6783.483937263761,10,57,-24.53495333,-12.0763604,f,1,1.1113439000328071,1,15,smaller
9,9,standard/switch,21501.12120769236,17,113,-5.541832691,31.07890857909637,j,1,1.0397360000060871,1,16,larger
9,11,standard/switch,6126.105674500097,25,30,13.264524555129096,-38.2203846,f,1,1.1873164000571703,1,17,smaller
9,14,standard/switch,22180.47316573864,25,113,8.045214428,27.52140038259675,j,1,1.1995986999827437,1,18,larger
9,8,standard/switch,13615.095328651263,17,85,-8.995342757,8.387433417892344,f,1,1.7979647999745794,1,19,smaller
9,6,standard/switch,4618.141200776996,17,30,-3.854444584,-37.8392214,f,1,0.674296100041829,1,20,smaller
9,22,standard/switch,11823.383951785188,40,57,41.88083319458841,-14.98800492,f,1,0.6442637000000104,2,21,smaller
9,3,standard/switch,12681.998677303796,10,85,-26.47077232,11.92758930596587,j,0,1.6472940999665298,2,22,larger
9,18,standard/switch,15747.887674588335,33,85,26.821232143487904,6.976824754974014,j,1,2.0250176999834366,2,23,larger
9,10,standard/switch,31217.831665796573,17,140,-1.732665378,46.70107673091564,j,1,0.5241869000019506,2,24,larger
9,8,standard/switch,13615.095328651263,17,85,-8.995342757,8.387433417892344,j,0,1.1642249000142328,2,25,larger
9,12,standard/switch,9303.433944524471,25,57,9.177647168036223,-16.07892918,f,1,0.6423805999802426,2,26,smaller
9,4,standard/switch,20906.68824440188,10,113,-23.83479794,30.479004461502832,j,1,0.5976048000156879,2,27,larger
9,23,standard/switch,16680.984325935802,40,85,38.21996555398914,5.057706707981728,j,1,1.1229905000072904,2,28,larger
9,20,standard/switch,31622.74805225926,33,140,26.14711175410772,43.96860584938808,j,1,0.5309357999940403,2,29,larger
9,11,standard/switch,6126.105674500097,25,30,13.264524555129096,-38.2203846,f,1,0.5479613000061363,2,30,smaller
9,9,standard/switch,21501.12120769236,17,113,-5.541832691,31.07890857909637,j,1,0.5461768999812193,2,31,larger
9,17,standard/switch,10647.407281730188,33,57,26.21866752665977,-14.79865055,f,1,1.8659640999976543,2,32,smaller
9,21,standard/switch,8953.53906273091,40,30,45.13982813678688,-35.30081098,f,1,0.5964405999984592,2,33,smaller
9,2,standard/switch,6783.483937263761,10,57,-24.53495333,-12.0763604,f,1,0.5926858000457287,2,34,smaller
9,16,standard/switch,7634.070148223198,33,30,30.19684495481618,-38.42373928,f,1,0.5429311000043526,2,35,smaller
9,15,standard/switch,31420.28985902792,25,140,12.129448921922751,51.77476957,j,1,0.5413172999978997,2,36,larger
9,6,standard/switch,4618.141200776996,17,30,-3.854444584,-37.8392214,f,1,0.5257920000003651,2,37,smaller
9,24,standard/switch,23454.2580870754,40,113,37.71162000489743,24.31290640287821,j,1,0.5733885999652557,2,38,larger
9,5,standard/switch,31040.68074671915,10,140,-16.71390068,50.111230393533226,j,1,0.5237185999867506,2,39,larger
9,14,standard/switch,22180.47316573864,25,113,8.045214428,27.52140038259675,j,1,1.1163445999845862,2,40,larger
