participant,stim,condition,category_A_label,category_B_label,category,angle,radius,angle_psy,radius_psy,key_choice,rt,trial_type,block_n,trial_n,category_choice
10,13,switch/standard,j,f,Test,25,85,9.818056926810664,7.222251006984481,f,6.819286300044041,standard,1,1,B
10,19,switch/standard,j,f,Test,33,113,26.34861461926153,27.630709460791525,f,5.483218000037596,switch,1,2,B
10,18,switch/standard,j,f,B,33,85,26.821232143487904,6.976824754974014,j,4.147104100033175,standard,1,3,A
10,6,switch/standard,j,f,B,17,30,-3.854444584,-37.8392214,f,9.12868880003225,switch,1,4,B
10,15,switch/standard,j,f,A,25,140,12.129448921922751,51.77476957,j,10.47459560004063,standard,1,5,A
10,20,switch/standard,j,f,A,33,140,26.14711175410772,43.96860584938808,j,3.222189399995841,switch,1,6,A
10,22,switch/standard,j,f,B,40,57,41.88083319458841,-14.98800492,f,5.937666599988006,standard,1,7,B
10,21,switch/standard,j,f,B,40,30,45.13982813678688,-35.30081098,f,6.686555199965369,standard,1,8,B
10,21,switch/standard,j,f,B,40,30,45.13982813678688,-35.30081098,f,5.411702800018247,switch,1,9,B
10,19,switch/standard,j,f,Test,33,113,26.34861461926153,27.630709460791525,f,11.518620599992571,standard,1,10,B
10,25,switch/standard,j,f,Test,40,140,38.35549087886737,42.56620206713007,j,3.878548600012437,switch,1,11,A
10,7,switch/standard,j,f,Test,17,57,-6.953638003,-14.02238557,j,2.856973599991761,standard,1,12,A
10,25,switch/standard,j,f,Test,40,140,38.35549087886737,42.56620206713007,f,3.2575841000070795,standard,1,13,B
10,23,switch/standard,j,f,B,40,85,38.21996555398914,5.057706707981728,j,2.2915932000032626,standard,1,14,A
10,7,switch/standard,j,f,Test,17,57,-6.953638003,-14.02238557,f,2.517357200034894,standard,1,15,B
10,13,switch/standard,j,f,Test,25,85,9.818056926810664,7.222251006984481,f,1.1165168000152337,standard,1,16,B
10,15,switch/standard,j,f,A,25,140,12.129448921922751,51.77476957,j,4.885929599986412,switch,1,17,A
10,19,switch/standard,j,f,Test,33,113,26.34861461926153,27.630709460791525,j,4.669419399986509,standard,1,18,A
10,16,switch/standard,j,f,B,33,30,30.19684495481618,-38.42373928,f,4.158869999984745,switch,1,19,B
10,8,switch/standard,j,f,A,17,85,-8.995342757,8.387433417892344,j,3.5469148000120185,standard,1,20,A
10,2,switch/standard,j,f,A,10,57,-24.53495333,-12.0763604,f,4.1138353000278585,switch,1,21,B
10,19,switch/standard,j,f,Test,33,113,26.34861461926153,27.630709460791525,f,5.6076768999919295,standard,1,22,B
10,1,switch/standard,j,f,Test,10,30,-20.84275308,-36.88849953,f,1.4416145000141114,standard,1,23,B
10,9,switch/standard,j,f,A,17,113,-5.541832691,31.07890857909637,f,1.133752599998843,standard,1,24,B
10,24,switch/standard,j,f,B,40,113,37.71162000489743,24.31290640287821,j,1.1730914000072517,standard,1,25,A
10,12,switch/standard,j,f,B,25,57,9.177647168036223,-16.07892918,j,1.1003800999606028,standard,1,26,A
10,13,switch/standard,j,f,Test,25,85,9.818056926810664,7.222251006984481,f,1.998032899980899,standard,1,27,B
10,7,switch/standard,j,f,Test,17,57,-6.953638003,-14.02238557,f,0.7789952000021003,standard,1,28,B
10,10,switch/standard,j,f,A,17,140,-1.732665378,46.70107673091564,j,4.801773999992292,switch,1,29,A
10,10,switch/standard,j,f,A,17,140,-1.732665378,46.70107673091564,j,0.8365457000327297,standard,1,30,A
10,19,switch/standard,j,f,Test,33,113,26.34861461926153,27.630709460791525,j,1.7288129000226036,standard,1,31,A
10,11,switch/standard,j,f,B,25,30,13.264524555129096,-38.2203846,f,0.914035000023432,standard,1,32,B
10,5,switch/standard,j,f,A,10,140,-16.71390068,50.111230393533226,j,3.615424099960365,switch,1,33,A
10,1,switch/standard,j,f,Test,10,30,-20.84275308,-36.88849953,f,1.7795861000195146,standard,1,34,B
10,1,switch/standard,j,f,Test,10,30,-20.84275308,-36.88849953,f,0.6851986999972723,standard,1,35,B
10,5,switch/standard,j,f,A,10,140,-16.71390068,50.111230393533226,j,0.8551225999835879,standard,1,36,A
10,25,switch/standard,j,f,Test,40,140,38.35549087886737,42.56620206713007,j,0.7057430000277236,standard,1,37,A
10,24,switch/standard,j,f,B,40,113,37.71162000489743,24.31290640287821,j,2.954538499994669,switch,1,38,A
10,13,switch/standard,j,f,Test,25,85,9.818056926810664,7.222251006984481,j,2.4706108999671414,standard,1,39,A
10,4,switch/standard,j,f,A,10,113,-23.83479794,30.479004461502832,j,2.5785900999908336,standard,1,40,A
10,25,switch/standard,j,f,Test,40,140,38.35549087886737,42.56620206713007,j,1.8798252000124192,standard,1,41,A
10,6,switch/standard,j,f,B,17,30,-3.854444584,-37.8392214,f,1.147115700005088,standard,1,42,B
10,13,switch/standard,j,f,Test,25,85,9.818056926810664,7.222251006984481,f,2.690068900003098,switch,1,43,B
10,14,switch/standard,j,f,A,25,113,8.045214428,27.52140038259675,j,1.7059522000490688,standard,1,44,A
10,3,switch/standard,j,f,A,10,85,-26.47077232,11.92758930596587,f,2.019729699997697,standard,1,45,B
10,7,switch/standard,j,f,Test,17,57,-6.953638003,-14.02238557,f,2.183542500017211,switch,1,46,B
10,7,switch/standard,j,f,Test,17,57,-6.953638003,-14.02238557,f,9.052387500007171,standard,1,47,B
10,17,switch/standard,j,f,B,33,57,26.21866752665977,-14.79865055,j,3.0668267000000924,standard,1,48,A
10,16,switch/standard,j,f,B,33,30,30.19684495481618,-38.42373928,j,0.8130028000450693,standard,1,49,A
10,20,switch/standard,j,f,A,33,140,26.14711175410772,43.96860584938808,f,0.7526875999756157,standard,1,50,B
10,25,switch/standard,j,f,Test,40,140,38.35549087886737,42.56620206713007,f,0.6576266000047326,standard,1,51,B
10,17,switch/standard,j,f,B,33,57,26.21866752665977,-14.79865055,j,4.951385699969251,switch,1,52,A
10,2,switch/standard,j,f,A,10,57,-24.53495333,-12.0763604,f,4.183060400013346,standard,1,53,B
10,1,switch/standard,j,f,Test,10,30,-20.84275308,-36.88849953,f,2.02959460002603,standard,1,54,B
10,1,switch/standard,j,f,Test,10,30,-20.84275308,-36.88849953,f,2.367482599976938,switch,1,55,B
10,10,switch/standard,j,f,A,17,140,-1.732665378,46.70107673091564,j,2.942855600034818,standard,2,1,A
10,22,switch/standard,j,f,B,40,57,41.88083319458841,-14.98800492,f,1.99773429997731,standard,2,2,B
10,1,switch/standard,j,f,Test,10,30,-20.84275308,-36.88849953,j,0.7959306000266224,standard,2,3,A
10,16,switch/standard,j,f,B,33,30,30.19684495481618,-38.42373928,f,1.1042757999966852,standard,2,4,B
10,13,switch/standard,j,f,Test,25,85,9.818056926810664,7.222251006984481,f,1.490317000017967,standard,2,5,B
10,19,switch/standard,j,f,Test,33,113,26.34861461926153,27.630709460791525,j,1.6358999999938533,standard,2,6,A
10,13,switch/standard,j,f,Test,25,85,9.818056926810664,7.222251006984481,f,1.3431405000155792,standard,2,7,B
10,17,switch/standard,j,f,B,33,57,26.21866752665977,-14.79865055,j,2.4764847999904305,switch,2,8,A
10,20,switch/standard,j,f,A,33,140,26.14711175410772,43.96860584938808,j,2.103088099975139,standard,2,9,A
10,1,switch/standard,j,f,Test,10,30,-20.84275308,-36.88849953,f,2.8648253999999724,switch,2,10,B
10,1,switch/standard,j,f,Test,10,30,-20.84275308,-36.88849953,f,1.050157500023488,standard,2,11,B
10,20,switch/standard,j,f,A,33,140,26.14711175410772,43.96860584938808,j,1.9540892000077292,switch,2,12,A
10,7,switch/standard,j,f,Test,17,57,-6.953638003,-14.02238557,f,0.9000473999767564,standard,2,13,B
10,24,switch/standard,j,f,B,40,113,37.71162000489743,24.31290640287821,j,0.5900988999637775,switch,2,14,A
10,5,switch/standard,j,f,A,10,140,-16.71390068,50.111230393533226,j,1.0360226000193506,standard,2,15,A
10,17,switch/standard,j,f,B,33,57,26.21866752665977,-14.79865055,f,2.4006174000096507,standard,2,16,B
10,9,switch/standard,j,f,A,17,113,-5.541832691,31.07890857909637,j,0.700781800027471,standard,2,17,A
10,2,switch/standard,j,f,A,10,57,-24.53495333,-12.0763604,f,0.6626282000215724,standard,2,18,B
10,7,switch/standard,j,f,Test,17,57,-6.953638003,-14.02238557,f,1.4747021999792196,standard,2,19,B
10,25,switch/standard,j,f,Test,40,140,38.35549087886737,42.56620206713007,j,1.140591099974699,standard,2,20,A
10,5,switch/standard,j,f,A,10,140,-16.71390068,50.111230393533226,j,2.308566899970174,switch,2,21,A
10,1,switch/standard,j,f,Test,10,30,-20.84275308,-36.88849953,f,1.1574276000028476,standard,2,22,B
10,15,switch/standard,j,f,A,25,140,12.129448921922751,51.77476957,j,2.0524855999974534,standard,2,23,A
10,10,switch/standard,j,f,A,17,140,-1.732665378,46.70107673091564,f,0.6144931999733672,switch,2,24,B
10,7,switch/standard,j,f,Test,17,57,-6.953638003,-14.02238557,j,1.0369795999722555,standard,2,25,A
10,6,switch/standard,j,f,B,17,30,-3.854444584,-37.8392214,j,2.080625400005374,standard,2,26,A
10,7,switch/standard,j,f,Test,17,57,-6.953638003,-14.02238557,f,1.2185129999998026,switch,2,27,B
10,12,switch/standard,j,f,B,25,57,9.177647168036223,-16.07892918,j,0.63093529996695,standard,2,28,A
10,18,switch/standard,j,f,B,33,85,26.821232143487904,6.976824754974014,f,0.34727680002106354,standard,2,29,B
10,4,switch/standard,j,f,A,10,113,-23.83479794,30.479004461502832,j,0.45147849997738376,standard,2,30,A
10,21,switch/standard,j,f,B,40,30,45.13982813678688,-35.30081098,f,0.6882627999875695,standard,2,31,B
10,2,switch/standard,j,f,A,10,57,-24.53495333,-12.0763604,f,1.026278299978003,switch,2,32,B
10,25,switch/standard,j,f,Test,40,140,38.35549087886737,42.56620206713007,j,0.9978217000025325,standard,2,33,A
10,1,switch/standard,j,f,Test,10,30,-20.84275308,-36.88849953,j,1.1886539999977686,standard,2,34,A
10,24,switch/standard,j,f,B,40,113,37.71162000489743,24.31290640287821,f,1.9375543999485672,standard,2,35,B
10,23,switch/standard,j,f,B,40,85,38.21996555398914,5.057706707981728,f,0.7695271999691613,standard,2,36,B
10,25,switch/standard,j,f,Test,40,140,38.35549087886737,42.56620206713007,j,0.7757001999998465,standard,2,37,A
10,25,switch/standard,j,f,Test,40,140,38.35549087886737,42.56620206713007,f,1.4941589000518434,switch,2,38,B
10,19,switch/standard,j,f,Test,33,113,26.34861461926153,27.630709460791525,f,2.12887930002762,standard,2,39,B
10,3,switch/standard,j,f,A,10,85,-26.47077232,11.92758930596587,j,0.968764299992472,standard,2,40,A
10,8,switch/standard,j,f,A,17,85,-8.995342757,8.387433417892344,j,0.8235061000450514,standard,2,41,A
10,19,switch/standard,j,f,Test,33,113,26.34861461926153,27.630709460791525,f,0.835260699968785,standard,2,42,B
10,19,switch/standard,j,f,Test,33,113,26.34861461926153,27.630709460791525,j,0.520125100039877,switch,2,43,A
10,14,switch/standard,j,f,A,25,113,8.045214428,27.52140038259675,j,0.9843463000142948,standard,2,44,A
10,13,switch/standard,j,f,Test,25,85,9.818056926810664,7.222251006984481,j,1.2081712000072002,standard,2,45,A
10,15,switch/standard,j,f,A,25,140,12.129448921922751,51.77476957,f,0.7401839999947697,switch,2,46,B
10,11,switch/standard,j,f,B,25,30,13.264524555129096,-38.2203846,f,7.0604408999788575,standard,2,47,B
10,13,switch/standard,j,f,Test,25,85,9.818056926810664,7.222251006984481,f,1.762979399994947,standard,2,48,B
10,16,switch/standard,j,f,B,33,30,30.19684495481618,-38.42373928,j,1.0823989000055008,switch,2,49,A
10,25,switch/standard,j,f,Test,40,140,38.35549087886737,42.56620206713007,j,3.71660119999433,standard,2,50,A
10,21,switch/standard,j,f,B,40,30,45.13982813678688,-35.30081098,f,0.7959556999849156,switch,2,51,B
10,19,switch/standard,j,f,Test,33,113,26.34861461926153,27.630709460791525,j,0.513991600018926,standard,2,52,A
10,13,switch/standard,j,f,Test,25,85,9.818056926810664,7.222251006984481,f,0.3396394000155851,switch,2,53,B
10,7,switch/standard,j,f,Test,17,57,-6.953638003,-14.02238557,j,0.40390239999396726,standard,2,54,A
10,6,switch/standard,j,f,B,17,30,-3.854444584,-37.8392214,f,0.3535628999816254,switch,2,55,B
10,25,switch/standard,j,f,Test,40,140,38.35549087886737,42.56620206713007,j,1.339720199990552,standard,3,1,A
10,7,switch/standard,j,f,Test,17,57,-6.953638003,-14.02238557,f,3.1639276000205427,switch,3,2,B
10,1,switch/standard,j,f,Test,10,30,-20.84275308,-36.88849953,f,0.9132823999971152,standard,3,3,B
10,13,switch/standard,j,f,Test,25,85,9.818056926810664,7.222251006984481,j,3.0822561000240967,standard,3,4,A
10,16,switch/standard,j,f,B,33,30,30.19684495481618,-38.42373928,j,1.499083500006236,switch,3,5,A
10,25,switch/standard,j,f,Test,40,140,38.35549087886737,42.56620206713007,j,2.076505000004545,standard,3,6,A
10,25,switch/standard,j,f,Test,40,140,38.35549087886737,42.56620206713007,j,1.215231699985452,standard,3,7,A
10,1,switch/standard,j,f,Test,10,30,-20.84275308,-36.88849953,f,3.507947099977173,switch,3,8,B
10,18,switch/standard,j,f,B,33,85,26.821232143487904,6.976824754974014,f,2.9153574999654666,standard,3,9,B
10,20,switch/standard,j,f,A,33,140,26.14711175410772,43.96860584938808,j,1.4114426000160163,standard,3,10,A
10,2,switch/standard,j,f,A,10,57,-24.53495333,-12.0763604,j,2.871973200002685,standard,3,11,A
10,1,switch/standard,j,f,Test,10,30,-20.84275308,-36.88849953,j,0.897618200047873,standard,3,12,A
10,6,switch/standard,j,f,B,17,30,-3.854444584,-37.8392214,j,0.6514066000236198,switch,3,13,A
10,25,switch/standard,j,f,Test,40,140,38.35549087886737,42.56620206713007,j,3.622450999973807,standard,3,14,A
10,20,switch/standard,j,f,A,33,140,26.14711175410772,43.96860584938808,j,0.7128236999851651,switch,3,15,A
10,11,switch/standard,j,f,B,25,30,13.264524555129096,-38.2203846,f,4.059178399969824,standard,3,16,B
10,3,switch/standard,j,f,A,10,85,-26.47077232,11.92758930596587,j,1.0523830000311136,standard,3,17,A
10,13,switch/standard,j,f,Test,25,85,9.818056926810664,7.222251006984481,j,0.863170100026764,standard,3,18,A
10,7,switch/standard,j,f,Test,17,57,-6.953638003,-14.02238557,f,1.0186585999908857,standard,3,19,B
10,7,switch/standard,j,f,Test,17,57,-6.953638003,-14.02238557,f,1.0787377000087872,standard,3,20,B
10,5,switch/standard,j,f,A,10,140,-16.71390068,50.111230393533226,j,2.8906042999587953,switch,3,21,A
10,15,switch/standard,j,f,A,25,140,12.129448921922751,51.77476957,j,1.5380947000230665,standard,3,22,A
10,5,switch/standard,j,f,A,10,140,-16.71390068,50.111230393533226,j,1.2656355999642983,standard,3,23,A
10,8,switch/standard,j,f,A,17,85,-8.995342757,8.387433417892344,j,0.9644948000204748,standard,3,24,A
10,21,switch/standard,j,f,B,40,30,45.13982813678688,-35.30081098,f,0.6278456000145525,standard,3,25,B
10,13,switch/standard,j,f,Test,25,85,9.818056926810664,7.222251006984481,j,1.8012617999920622,standard,3,26,A
10,13,switch/standard,j,f,Test,25,85,9.818056926810664,7.222251006984481,f,1.3662890999694357,standard,3,27,B
10,6,switch/standard,j,f,B,17,30,-3.854444584,-37.8392214,f,3.3340478999889456,standard,3,28,B
10,19,switch/standard,j,f,Test,33,113,26.34861461926153,27.630709460791525,j,1.5319220999954268,standard,3,29,A
10,10,switch/standard,j,f,A,17,140,-1.732665378,46.70107673091564,j,1.2600570999784395,standard,3,30,A
10,2,switch/standard,j,f,A,10,57,-24.53495333,-12.0763604,f,4.1839815999846905,switch,3,31,B
10,9,switch/standard,j,f,A,17,113,-5.541832691,31.07890857909637,j,5.1466288000228815,standard,3,32,A
10,25,switch/standard,j,f,Test,40,140,38.35549087886737,42.56620206713007,f,0.439369399973657,switch,3,33,B
10,19,switch/standard,j,f,Test,33,113,26.34861461926153,27.630709460791525,f,0.7798760000150651,standard,3,34,B
10,1,switch/standard,j,f,Test,10,30,-20.84275308,-36.88849953,j,3.170920600008685,standard,3,35,A
10,23,switch/standard,j,f,B,40,85,38.21996555398914,5.057706707981728,f,1.3279633999918588,standard,3,36,B
10,16,switch/standard,j,f,B,33,30,30.19684495481618,-38.42373928,f,0.648444999998901,standard,3,37,B
10,19,switch/standard,j,f,Test,33,113,26.34861461926153,27.630709460791525,j,0.7647727000294253,switch,3,38,A
10,24,switch/standard,j,f,B,40,113,37.71162000489743,24.31290640287821,j,0.47691389999818057,standard,3,39,A
10,19,switch/standard,j,f,Test,33,113,26.34861461926153,27.630709460791525,j,0.471299699973315,standard,3,40,A
10,15,switch/standard,j,f,A,25,140,12.129448921922751,51.77476957,j,3.033820000011474,switch,3,41,A
10,7,switch/standard,j,f,Test,17,57,-6.953638003,-14.02238557,f,3.3093872999888845,standard,3,42,B
10,21,switch/standard,j,f,B,40,30,45.13982813678688,-35.30081098,j,0.7574553999584168,switch,3,43,A
10,4,switch/standard,j,f,A,10,113,-23.83479794,30.479004461502832,j,3.3556631000246853,standard,3,44,A
10,12,switch/standard,j,f,B,25,57,9.177647168036223,-16.07892918,f,1.2505288000102155,standard,3,45,B
10,10,switch/standard,j,f,A,17,140,-1.732665378,46.70107673091564,j,1.597317399980966,switch,3,46,A
10,14,switch/standard,j,f,A,25,113,8.045214428,27.52140038259675,j,2.8834570000180975,standard,3,47,A
10,22,switch/standard,j,f,B,40,57,41.88083319458841,-14.98800492,f,1.669097599980887,standard,3,48,B
10,19,switch/standard,j,f,Test,33,113,26.34861461926153,27.630709460791525,j,1.6226864000200294,standard,3,49,A
10,17,switch/standard,j,f,B,33,57,26.21866752665977,-14.79865055,f,3.506037099985406,switch,3,50,B
10,1,switch/standard,j,f,Test,10,30,-20.84275308,-36.88849953,f,4.162730699987151,standard,3,51,B
10,13,switch/standard,j,f,Test,25,85,9.818056926810664,7.222251006984481,j,1.3196210999740288,switch,3,52,A
10,7,switch/standard,j,f,Test,17,57,-6.953638003,-14.02238557,j,1.0000359999830837,standard,3,53,A
10,17,switch/standard,j,f,B,33,57,26.21866752665977,-14.79865055,f,1.0771593999816105,standard,3,54,B
10,24,switch/standard,j,f,B,40,113,37.71162000489743,24.31290640287821,f,0.6471567000262439,switch,3,55,B
11,3,standard/switch,f,j,A,10,85,-26.47077232,11.92758930596587,j,1.284968400024809,standard,1,1,B
11,21,standard/switch,f,j,B,40,30,45.13982813678688,-35.30081098,f,4.167050399992149,switch,1,2,A
11,25,standard/switch,f,j,Test,40,140,38.35549087886737,42.56620206713007,f,1.579499300045427,standard,1,3,A
11,1,standard/switch,f,j,Test,10,30,-20.84275308,-36.88849953,f,0.8500511999591254,switch,1,4,A
11,18,standard/switch,f,j,B,33,85,26.821232143487904,6.976824754974014,j,1.6215927000157535,standard,1,5,B
11,5,standard/switch,f,j,A,10,140,-16.71390068,50.111230393533226,f,1.4265638000215404,standard,1,6,A
11,1,standard/switch,f,j,Test,10,30,-20.84275308,-36.88849953,j,1.3103492999798618,standard,1,7,B
11,16,standard/switch,f,j,B,33,30,30.19684495481618,-38.42373928,f,0.9677109000040218,switch,1,8,A
11,1,standard/switch,f,j,Test,10,30,-20.84275308,-36.88849953,f,2.685992799990345,standard,1,9,A
11,13,standard/switch,f,j,Test,25,85,9.818056926810664,7.222251006984481,f,1.9269080000231045,switch,1,10,A
11,14,standard/switch,f,j,A,25,113,8.045214428,27.52140038259675,f,1.1112184000085108,standard,1,11,A
11,12,standard/switch,f,j,B,25,57,9.177647168036223,-16.07892918,j,0.8079729999881238,standard,1,12,B
11,6,standard/switch,f,j,B,17,30,-3.854444584,-37.8392214,j,1.469559899996966,standard,1,13,B
11,19,standard/switch,f,j,Test,33,113,26.34861461926153,27.630709460791525,j,0.5197631999617442,switch,1,14,B
11,13,standard/switch,f,j,Test,25,85,9.818056926810664,7.222251006984481,f,0.8087825999828056,standard,1,15,A
11,20,standard/switch,f,j,A,33,140,26.14711175410772,43.96860584938808,j,1.5417875000275671,switch,1,16,B
11,19,standard/switch,f,j,Test,33,113,26.34861461926153,27.630709460791525,f,0.9816924000042492,standard,1,17,A
11,2,standard/switch,f,j,A,10,57,-24.53495333,-12.0763604,f,0.4756167000159621,switch,1,18,A
11,13,standard/switch,f,j,Test,25,85,9.818056926810664,7.222251006984481,j,0.05467489996226504,standard,1,19,B
11,25,standard/switch,f,j,Test,40,140,38.35549087886737,42.56620206713007,f,0.098983500036411,switch,1,20,A
11,10,standard/switch,f,j,A,17,140,-1.732665378,46.70107673091564,f,0.41362550004851073,standard,1,21,A
11,8,standard/switch,f,j,A,17,85,-8.995342757,8.387433417892344,f,0.2509764999849722,standard,1,22,A
11,1,standard/switch,f,j,Test,10,30,-20.84275308,-36.88849953,j,0.24787330004619432,standard,1,23,B
11,11,standard/switch,f,j,B,25,30,13.264524555129096,-38.2203846,j,0.5247604999458417,standard,1,24,B
11,1,standard/switch,f,j,Test,10,30,-20.84275308,-36.88849953,j,0.4454530999646522,standard,1,25,B
11,7,standard/switch,f,j,Test,17,57,-6.953638003,-14.02238557,j,0.6259312000474893,switch,1,26,B
11,7,standard/switch,f,j,Test,17,57,-6.953638003,-14.02238557,j,0.43889629998011515,standard,1,27,B
11,25,standard/switch,f,j,Test,40,140,38.35549087886737,42.56620206713007,f,0.2747203999897465,standard,1,28,A
11,5,standard/switch,f,j,A,10,140,-16.71390068,50.111230393533226,f,0.9819375000079162,switch,1,29,A
11,7,standard/switch,f,j,Test,17,57,-6.953638003,-14.02238557,j,1.876054899999872,standard,1,30,B
11,19,standard/switch,f,j,Test,33,113,26.34861461926153,27.630709460791525,j,1.0302165999892168,standard,1,31,B
11,24,standard/switch,f,j,B,40,113,37.71162000489743,24.31290640287821,j,0.49153759999899194,switch,1,32,B
11,25,standard/switch,f,j,Test,40,140,38.35549087886737,42.56620206713007,f,0.5724048999836668,standard,1,33,A
11,10,standard/switch,f,j,A,17,140,-1.732665378,46.70107673091564,j,0.6837054000352509,switch,1,34,B
11,15,standard/switch,f,j,A,25,140,12.129448921922751,51.77476957,f,0.6061499000061303,standard,1,35,A
11,2,standard/switch,f,j,A,10,57,-24.53495333,-12.0763604,f,0.6922683999873698,standard,1,36,A
11,25,standard/switch,f,j,Test,40,140,38.35549087886737,42.56620206713007,f,0.702177400002256,standard,1,37,A
11,4,standard/switch,f,j,A,10,113,-23.83479794,30.479004461502832,f,0.759853399998974,standard,1,38,A
11,13,standard/switch,f,j,Test,25,85,9.818056926810664,7.222251006984481,j,0.7597192999674007,standard,1,39,B
11,17,standard/switch,f,j,B,33,57,26.21866752665977,-14.79865055,f,0.7436496000154875,switch,1,40,A
11,24,standard/switch,f,j,B,40,113,37.71162000489743,24.31290640287821,f,0.6307475999929011,standard,1,41,A
11,19,standard/switch,f,j,Test,33,113,26.34861461926153,27.630709460791525,f,0.6354563999921083,standard,1,42,A
11,15,standard/switch,f,j,A,25,140,12.129448921922751,51.77476957,f,0.6643076000036672,switch,1,43,A
11,21,standard/switch,f,j,B,40,30,45.13982813678688,-35.30081098,j,0.6684338999912143,standard,1,44,B
11,23,standard/switch,f,j,B,40,85,38.21996555398914,5.057706707981728,j,0.7429163999622688,standard,1,45,B
11,19,standard/switch,f,j,Test,33,113,26.34861461926153,27.630709460791525,f,0.6313415999757126,standard,1,46,A
11,20,standard/switch,f,j,A,33,140,26.14711175410772,43.96860584938808,f,0.7158364999922924,standard,1,47,A
11,16,standard/switch,f,j,B,33,30,30.19684495481618,-38.42373928,j,0.6611650999984704,standard,1,48,B
11,9,standard/switch,f,j,A,17,113,-5.541832691,31.07890857909637,f,0.6649703999864869,standard,1,49,A
11,22,standard/switch,f,j,B,40,57,41.88083319458841,-14.98800492,j,0.6038834999781102,standard,1,50,B
11,13,standard/switch,f,j,Test,25,85,9.818056926810664,7.222251006984481,f,0.6654022000147961,standard,1,51,A
11,7,standard/switch,f,j,Test,17,57,-6.953638003,-14.02238557,f,0.9807868999778292,standard,1,52,A
11,6,standard/switch,f,j,B,17,30,-3.854444584,-37.8392214,f,0.98096140002599,switch,1,53,A
11,7,standard/switch,f,j,Test,17,57,-6.953638003,-14.02238557,f,0.8740969999926165,standard,1,54,A
11,17,standard/switch,f,j,B,33,57,26.21866752665977,-14.79865055,j,0.7342423000372946,standard,1,55,B
11,14,standard/switch,f,j,A,25,113,8.045214428,27.52140038259675,f,0.5761701000155881,standard,2,1,A
11,19,standard/switch,f,j,Test,33,113,26.34861461926153,27.630709460791525,f,0.45416590000968426,standard,2,2,A
11,24,standard/switch,f,j,B,40,113,37.71162000489743,24.31290640287821,j,0.8898166999570094,switch,2,3,B
11,3,standard/switch,f,j,A,10,85,-26.47077232,11.92758930596587,f,0.5641738999984227,standard,2,4,A
11,11,standard/switch,f,j,B,25,30,13.264524555129096,-38.2203846,f,0.9081072999979368,standard,2,5,A
11,16,standard/switch,f,j,B,33,30,30.19684495481618,-38.42373928,j,0.5976447999710217,standard,2,6,B
11,25,standard/switch,f,j,Test,40,140,38.35549087886737,42.56620206713007,f,0.851023500028532,standard,2,7,A
11,17,standard/switch,f,j,B,33,57,26.21866752665977,-14.79865055,j,1.3111751999822443,standard,2,8,B
11,25,standard/switch,f,j,Test,40,140,38.35549087886737,42.56620206713007,f,0.7686639999737963,standard,2,9,A
11,10,standard/switch,f,j,A,17,140,-1.732665378,46.70107673091564,f,0.8946371000492945,standard,2,10,A
11,21,standard/switch,f,j,B,40,30,45.13982813678688,-35.30081098,f,0.8410662999958731,switch,2,11,A
11,25,standard/switch,f,j,Test,40,140,38.35549087886737,42.56620206713007,f,0.8207760999794118,standard,2,12,A
11,7,standard/switch,f,j,Test,17,57,-6.953638003,-14.02238557,f,0.6495257000206038,standard,2,13,A
11,20,standard/switch,f,j,A,33,140,26.14711175410772,43.96860584938808,f,0.5661859999527223,switch,2,14,A
11,1,standard/switch,f,j,Test,10,30,-20.84275308,-36.88849953,j,0.7088808999978937,standard,2,15,B
11,6,standard/switch,f,j,B,17,30,-3.854444584,-37.8392214,f,1.334564400021918,switch,2,16,A
11,13,standard/switch,f,j,Test,25,85,9.818056926810664,7.222251006984481,f,2.0071049999678507,standard,2,17,A
11,8,standard/switch,f,j,A,17,85,-8.995342757,8.387433417892344,f,0.787252800015267,standard,2,18,A
11,6,standard/switch,f,j,B,17,30,-3.854444584,-37.8392214,j,0.6405748000252061,standard,2,19,B
11,5,standard/switch,f,j,A,10,140,-16.71390068,50.111230393533226,f,0.5257090000086464,standard,2,20,A
11,19,standard/switch,f,j,Test,33,113,26.34861461926153,27.630709460791525,f,0.47043819999089465,standard,2,21,A
11,15,standard/switch,f,j,A,25,140,12.129448921922751,51.77476957,j,0.5528840000042692,switch,2,22,B
11,7,standard/switch,f,j,Test,17,57,-6.953638003,-14.02238557,f,0.6810322999954224,standard,2,23,A
11,23,standard/switch,f,j,B,40,85,38.21996555398914,5.057706707981728,f,0.5473520000232384,standard,2,24,A
11,18,standard/switch,f,j,B,33,85,26.821232143487904,6.976824754974014,f,0.6519174000131898,standard,2,25,A
11,25,standard/switch,f,j,Test,40,140,38.35549087886737,42.56620206713007,f,0.5839292000164278,standard,2,26,A
11,5,standard/switch,f,j,A,10,140,-16.71390068,50.111230393533226,j,0.5255885999649763,switch,2,27,B
11,7,standard/switch,f,j,Test,17,57,-6.953638003,-14.02238557,f,0.5281012000050396,standard,2,28,A
11,21,standard/switch,f,j,B,40,30,45.13982813678688,-35.30081098,j,1.4313432999770157,standard,2,29,B
11,13,standard/switch,f,j,Test,25,85,9.818056926810664,7.222251006984481,j,0.5567665999988094,standard,2,30,B
11,12,standard/switch,f,j,B,25,57,9.177647168036223,-16.07892918,j,0.40483779995702207,standard,2,31,B
11,19,standard/switch,f,j,Test,33,113,26.34861461926153,27.630709460791525,j,0.5063646000344306,standard,2,32,B
11,16,standard/switch,f,j,B,33,30,30.19684495481618,-38.42373928,j,0.531315199972596,switch,2,33,B
11,22,standard/switch,f,j,B,40,57,41.88083319458841,-14.98800492,j,0.5808496000245214,standard,2,34,B
11,19,standard/switch,f,j,Test,33,113,26.34861461926153,27.630709460791525,j,0.5308258999721147,standard,2,35,B
11,17,standard/switch,f,j,B,33,57,26.21866752665977,-14.79865055,f,0.5404610999976285,switch,2,36,A
11,4,standard/switch,f,j,A,10,113,-23.83479794,30.479004461502832,f,0.6610637999838218,standard,2,37,A
11,10,standard/switch,f,j,A,17,140,-1.732665378,46.70107673091564,j,1.192493900016416,switch,2,38,B
11,7,standard/switch,f,j,Test,17,57,-6.953638003,-14.02238557,j,1.030658100033179,standard,2,39,B
11,13,standard/switch,f,j,Test,25,85,9.818056926810664,7.222251006984481,f,0.8190962999942712,switch,2,40,A
11,1,standard/switch,f,j,Test,10,30,-20.84275308,-36.88849953,j,1.4078462000470608,standard,2,41,B
11,13,standard/switch,f,j,Test,25,85,9.818056926810664,7.222251006984481,f,0.5308972000493668,standard,2,42,A
11,19,standard/switch,f,j,Test,33,113,26.34861461926153,27.630709460791525,j,2.115107900055591,switch,2,43,B
11,2,standard/switch,f,j,A,10,57,-24.53495333,-12.0763604,j,0.3169054000172764,standard,2,44,B
11,1,standard/switch,f,j,Test,10,30,-20.84275308,-36.88849953,f,0.45399820001330227,standard,2,45,A
11,15,standard/switch,f,j,A,25,140,12.129448921922751,51.77476957,f,0.45066440000664437,standard,2,46,A
11,7,standard/switch,f,j,Test,17,57,-6.953638003,-14.02238557,f,0.7023734000395052,switch,2,47,A
11,9,standard/switch,f,j,A,17,113,-5.541832691,31.07890857909637,f,0.4794261999777518,standard,2,48,A
11,25,standard/switch,f,j,Test,40,140,38.35549087886737,42.56620206713007,j,0.778581699996721,switch,2,49,B
11,1,standard/switch,f,j,Test,10,30,-20.84275308,-36.88849953,j,0.5221797999693081,standard,2,50,B
11,24,standard/switch,f,j,B,40,113,37.71162000489743,24.31290640287821,f,0.7069893999723718,standard,2,51,A
11,13,standard/switch,f,j,Test,25,85,9.818056926810664,7.222251006984481,f,0.10803579998901114,standard,2,52,A
11,1,standard/switch,f,j,Test,10,30,-20.84275308,-36.88849953,j,0.14184140000725165,switch,2,53,B
11,20,standard/switch,f,j,A,33,140,26.14711175410772,43.96860584938808,j,0.31096030003391206,standard,2,54,B
11,2,standard/switch,f,j,A,10,57,-24.53495333,-12.0763604,f,1.000978900003247,switch,2,55,A
11,3,standard/switch,f,j,A,10,85,-26.47077232,11.92758930596587,f,0.7798988000140525,standard,3,1,A
11,20,standard/switch,f,j,A,33,140,26.14711175410772,43.96860584938808,j,3.1544311000034213,switch,3,2,B
11,7,standard/switch,f,j,Test,17,57,-6.953638003,-14.02238557,j,0.8403272000141442,standard,3,3,B
11,21,standard/switch,f,j,B,40,30,45.13982813678688,-35.30081098,f,0.8443258999614045,switch,3,4,A
11,5,standard/switch,f,j,A,10,140,-16.71390068,50.111230393533226,f,0.7128383999806829,standard,3,5,A
11,21,standard/switch,f,j,B,40,30,45.13982813678688,-35.30081098,j,0.7461362999747507,standard,3,6,B
11,14,standard/switch,f,j,A,25,113,8.045214428,27.52140038259675,f,0.7378877999726683,standard,3,7,A
11,25,standard/switch,f,j,Test,40,140,38.35549087886737,42.56620206713007,f,0.6585898000048473,standard,3,8,A
11,19,standard/switch,f,j,Test,33,113,26.34861461926153,27.630709460791525,f,0.5176923000253737,standard,3,9,A
11,10,standard/switch,f,j,A,17,140,-1.732665378,46.70107673091564,j,0.6707639000378549,switch,3,10,B
11,18,standard/switch,f,j,B,33,85,26.821232143487904,6.976824754974014,f,0.8181117000058293,standard,3,11,A
11,7,standard/switch,f,j,Test,17,57,-6.953638003,-14.02238557,j,0.47895010001957417,standard,3,12,B
11,2,standard/switch,f,j,A,10,57,-24.53495333,-12.0763604,j,0.11501059995498508,standard,3,13,B
11,11,standard/switch,f,j,B,25,30,13.264524555129096,-38.2203846,f,0.5639658999862149,standard,3,14,A
11,15,standard/switch,f,j,A,25,140,12.129448921922751,51.77476957,j,0.20325870002852753,switch,3,15,B
11,4,standard/switch,f,j,A,10,113,-23.83479794,30.479004461502832,j,0.20145650004269555,standard,3,16,B
11,7,standard/switch,f,j,Test,17,57,-6.953638003,-14.02238557,j,0.4385498000192456,standard,3,17,B
11,19,standard/switch,f,j,Test,33,113,26.34861461926153,27.630709460791525,j,3.643403500027489,switch,3,18,B
11,19,standard/switch,f,j,Test,33,113,26.34861461926153,27.630709460791525,f,0.06948289996944368,standard,3,19,A
11,1,standard/switch,f,j,Test,10,30,-20.84275308,-36.88849953,j,0.04137350001838058,switch,3,20,B
11,24,standard/switch,f,j,B,40,113,37.71162000489743,24.31290640287821,j,0.14940029999706894,standard,3,21,B
11,23,standard/switch,f,j,B,40,85,38.21996555398914,5.057706707981728,j,1.2061476000235416,standard,3,22,B
11,25,standard/switch,f,j,Test,40,140,38.35549087886737,42.56620206713007,j,0.19530249998206273,standard,3,23,B
11,2,standard/switch,f,j,A,10,57,-24.53495333,-12.0763604,f,0.9208828999544494,switch,3,24,A
11,13,standard/switch,f,j,Test,25,85,9.818056926810664,7.222251006984481,j,1.8346398000139743,standard,3,25,B
11,13,standard/switch,f,j,Test,25,85,9.818056926810664,7.222251006984481,f,1.6149665999691931,switch,3,26,A
11,6,standard/switch,f,j,B,17,30,-3.854444584,-37.8392214,j,0.33945949998451397,standard,3,27,B
11,19,standard/switch,f,j,Test,33,113,26.34861461926153,27.630709460791525,f,0.8032904000137933,standard,3,28,A
11,1,standard/switch,f,j,Test,10,30,-20.84275308,-36.88849953,f,0.19274919998133555,standard,3,29,A
11,9,standard/switch,f,j,A,17,113,-5.541832691,31.07890857909637,f,0.2715986000257544,standard,3,30,A
11,13,standard/switch,f,j,Test,25,85,9.818056926810664,7.222251006984481,f,0.3472555999760516,standard,3,31,A
11,1,standard/switch,f,j,Test,10,30,-20.84275308,-36.88849953,f,0.3313488000421785,standard,3,32,A
11,8,standard/switch,f,j,A,17,85,-8.995342757,8.387433417892344,f,1.2441977999988012,standard,3,33,A
11,7,standard/switch,f,j,Test,17,57,-6.953638003,-14.02238557,j,0.5440478000091389,standard,3,34,B
11,5,standard/switch,f,j,A,10,140,-16.71390068,50.111230393533226,j,1.927296000008937,switch,3,35,B
11,16,standard/switch,f,j,B,33,30,30.19684495481618,-38.42373928,j,0.6648418999975547,standard,3,36,B
11,12,standard/switch,f,j,B,25,57,9.177647168036223,-16.07892918,j,0.3794824999640696,standard,3,37,B
11,15,standard/switch,f,j,A,25,140,12.129448921922751,51.77476957,f,0.5147879999713041,standard,3,38,A
11,25,standard/switch,f,j,Test,40,140,38.35549087886737,42.56620206713007,f,0.4205826999968849,standard,3,39,A
11,17,standard/switch,f,j,B,33,57,26.21866752665977,-14.79865055,j,0.5691929000313394,standard,3,40,B
11,24,standard/switch,f,j,B,40,113,37.71162000489743,24.31290640287821,j,1.0572272000135854,switch,3,41,B
11,25,standard/switch,f,j,Test,40,140,38.35549087886737,42.56620206713007,f,0.47526579996338114,standard,3,42,A
11,13,standard/switch,f,j,Test,25,85,9.818056926810664,7.222251006984481,f,0.7433164999820292,standard,3,43,A
11,22,standard/switch,f,j,B,40,57,41.88083319458841,-14.98800492,f,0.13573799998266622,standard,3,44,A
11,20,standard/switch,f,j,A,33,140,26.14711175410772,43.96860584938808,j,0.37545890000183135,standard,3,45,B
11,7,standard/switch,f,j,Test,17,57,-6.953638003,-14.02238557,f,0.6068886000430211,switch,3,46,A
11,1,standard/switch,f,j,Test,10,30,-20.84275308,-36.88849953,j,0.5725476000225171,standard,3,47,B
11,25,standard/switch,f,j,Test,40,140,38.35549087886737,42.56620206713007,f,0.8677005000063218,switch,3,48,A
11,10,standard/switch,f,j,A,17,140,-1.732665378,46.70107673091564,f,3.9029648999567144,standard,3,49,A
11,13,standard/switch,f,j,Test,25,85,9.818056926810664,7.222251006984481,j,1.422474600025453,standard,3,50,B
11,6,standard/switch,f,j,B,17,30,-3.854444584,-37.8392214,f,0.9305079999612644,switch,3,51,A
11,19,standard/switch,f,j,Test,33,113,26.34861461926153,27.630709460791525,f,0.5059457999886945,standard,3,52,A
11,17,standard/switch,f,j,B,33,57,26.21866752665977,-14.79865055,j,0.6208959999494255,switch,3,53,B
11,1,standard/switch,f,j,Test,10,30,-20.84275308,-36.88849953,j,0.5532561999862082,standard,3,54,B
11,16,standard/switch,f,j,B,33,30,30.19684495481618,-38.42373928,f,0.6158752999617718,switch,3,55,A
12,2,switch/standard,f,j,A,10,57,-24.53495333,-12.0763604,f,7.664305399986915,standard,1,1,A
12,9,switch/standard,f,j,A,17,113,-5.541832691,31.07890857909637,j,1.718562500027474,standard,1,2,B
12,25,switch/standard,f,j,Test,40,140,38.35549087886737,42.56620206713007,j,0.9418165999813936,standard,1,3,B
12,19,switch/standard,f,j,Test,33,113,26.34861461926153,27.630709460791525,j,1.9252532999962568,standard,1,4,B
12,21,switch/standard,f,j,B,40,30,45.13982813678688,-35.30081098,f,2.9258487000479363,switch,1,5,A
12,12,switch/standard,f,j,B,25,57,9.177647168036223,-16.07892918,f,0.9566952000022866,standard,1,6,A
12,10,switch/standard,f,j,A,17,140,-1.732665378,46.70107673091564,j,3.5563653000281192,switch,1,7,B
12,3,switch/standard,f,j,A,10,85,-26.47077232,11.92758930596587,f,5.905934999987949,standard,1,8,A
12,1,switch/standard,f,j,Test,10,30,-20.84275308,-36.88849953,f,2.7840196000179276,standard,1,9,A
12,13,switch/standard,f,j,Test,25,85,9.818056926810664,7.222251006984481,f,3.540240200003609,standard,1,10,A
12,23,switch/standard,f,j,B,40,85,38.21996555398914,5.057706707981728,j,1.1707748000044376,standard,1,11,B
12,11,switch/standard,f,j,B,25,30,13.264524555129096,-38.2203846,j,1.233186100027524,standard,1,12,B
12,2,switch/standard,f,j,A,10,57,-24.53495333,-12.0763604,f,1.917287299991585,switch,1,13,A
12,8,switch/standard,f,j,A,17,85,-8.995342757,8.387433417892344,f,8.774382399977185,standard,1,14,A
12,14,switch/standard,f,j,A,25,113,8.045214428,27.52140038259675,j,2.8706442000111565,standard,1,15,B
12,13,switch/standard,f,j,Test,25,85,9.818056926810664,7.222251006984481,j,2.695940299949143,standard,1,16,B
12,1,switch/standard,f,j,Test,10,30,-20.84275308,-36.88849953,f,1.7764304999727756,switch,1,17,A
12,7,switch/standard,f,j,Test,17,57,-6.953638003,-14.02238557,f,3.670568600005936,standard,1,18,A
12,17,switch/standard,f,j,B,33,57,26.21866752665977,-14.79865055,f,3.054961199988611,switch,1,19,A
12,18,switch/standard,f,j,B,33,85,26.821232143487904,6.976824754974014,j,1.8175379000022076,standard,1,20,B
12,25,switch/standard,f,j,Test,40,140,38.35549087886737,42.56620206713007,j,1.9011483999784105,standard,1,21,B
12,25,switch/standard,f,j,Test,40,140,38.35549087886737,42.56620206713007,j,1.6476967000053264,switch,1,22,B
12,15,switch/standard,f,j,A,25,140,12.129448921922751,51.77476957,f,4.867056599992793,standard,1,23,A
12,7,switch/standard,f,j,Test,17,57,-6.953638003,-14.02238557,f,1.5391396000050008,standard,1,24,A
12,10,switch/standard,f,j,A,17,140,-1.732665378,46.70107673091564,f,0.9537649999838322,standard,1,25,A
12,16,switch/standard,f,j,B,33,30,30.19684495481618,-38.42373928,j,0.6088763999869116,standard,1,26,B
12,15,switch/standard,f,j,A,25,140,12.129448921922751,51.77476957,j,1.3276205000001935,switch,1,27,B
12,19,switch/standard,f,j,Test,33,113,26.34861461926153,27.630709460791525,j,6.055115299997851,standard,1,28,B
12,24,switch/standard,f,j,B,40,113,37.71162000489743,24.31290640287821,j,0.7748799999826588,standard,1,29,B
12,5,switch/standard,f,j,A,10,140,-16.71390068,50.111230393533226,j,1.1496677999966778,switch,1,30,B
12,1,switch/standard,f,j,Test,10,30,-20.84275308,-36.88849953,f,0.868900700006634,standard,1,31,A
12,25,switch/standard,f,j,Test,40,140,38.35549087886737,42.56620206713007,j,1.1444742999738082,standard,1,32,B
12,21,switch/standard,f,j,B,40,30,45.13982813678688,-35.30081098,j,1.0487468999926932,standard,1,33,B
12,7,switch/standard,f,j,Test,17,57,-6.953638003,-14.02238557,f,3.019803600036539,standard,1,34,A
12,1,switch/standard,f,j,Test,10,30,-20.84275308,-36.88849953,f,3.414931899984367,standard,1,35,A
12,7,switch/standard,f,j,Test,17,57,-6.953638003,-14.02238557,f,3.353974100027699,switch,1,36,A
12,22,switch/standard,f,j,B,40,57,41.88083319458841,-14.98800492,j,1.0554733999888413,standard,1,37,B
12,5,switch/standard,f,j,A,10,140,-16.71390068,50.111230393533226,f,1.2990930000087246,standard,1,38,A
12,20,switch/standard,f,j,A,33,140,26.14711175410772,43.96860584938808,j,1.4686368000111545,switch,1,39,B
12,20,switch/standard,f,j,A,33,140,26.14711175410772,43.96860584938808,j,1.174867500027176,standard,1,40,B
12,16,switch/standard,f,j,B,33,30,30.19684495481618,-38.42373928,j,2.8133478999952786,switch,1,41,B
12,19,switch/standard,f,j,Test,33,113,26.34861461926153,27.630709460791525,j,2.0575556000112556,standard,1,42,B
12,13,switch/standard,f,j,Test,25,85,9.818056926810664,7.222251006984481,f,2.2520142000284977,standard,1,43,A
12,13,switch/standard,f,j,Test,25,85,9.818056926810664,7.222251006984481,f,5.87862120004138,switch,1,44,A
12,17,switch/standard,f,j,B,33,57,26.21866752665977,-14.79865055,j,0.8135719999554567,standard,1,45,B
12,25,switch/standard,f,j,Test,40,140,38.35549087886737,42.56620206713007,j,1.6188314000028186,standard,1,46,B
12,19,switch/standard,f,j,Test,33,113,26.34861461926153,27.630709460791525,j,2.1997624000068754,standard,1,47,B
12,4,switch/standard,f,j,A,10,113,-23.83479794,30.479004461502832,f,0.8840410999837331,standard,1,48,A
12,6,switch/standard,f,j,B,17,30,-3.854444584,-37.8392214,f,1.9429574999958277,switch,1,49,A
12,1,switch/standard,f,j,Test,10,30,-20.84275308,-36.88849953,f,0.8382573999697343,standard,1,50,A
12,13,switch/standard,f,j,Test,25,85,9.818056926810664,7.222251006984481,j,1.7778356000198985,standard,1,51,B
12,19,switch/standard,f,j,Test,33,113,26.34861461926153,27.630709460791525,j,6.047704400029033,switch,1,52,B
12,6,switch/standard,f,j,B,17,30,-3.854444584,-37.8392214,f,1.744126299978234,standard,1,53,A
12,24,switch/standard,f,j,B,40,113,37.71162000489743,24.31290640287821,j,2.063605599978473,switch,1,54,B
12,7,switch/standard,f,j,Test,17,57,-6.953638003,-14.02238557,f,1.6017729000304826,standard,1,55,A
12,11,switch/standard,f,j,B,25,30,13.264524555129096,-38.2203846,j,1.80216180003481,standard,2,1,B
12,24,switch/standard,f,j,B,40,113,37.71162000489743,24.31290640287821,j,2.3750539000029676,switch,2,2,B
12,25,switch/standard,f,j,Test,40,140,38.35549087886737,42.56620206713007,j,0.6925461000064388,standard,2,3,B
12,21,switch/standard,f,j,B,40,30,45.13982813678688,-35.30081098,j,1.5262885999982243,switch,2,4,B
12,13,switch/standard,f,j,Test,25,85,9.818056926810664,7.222251006984481,f,0.8470000000088476,standard,2,5,A
12,17,switch/standard,f,j,B,33,57,26.21866752665977,-14.79865055,j,0.8990196000086144,standard,2,6,B
12,13,switch/standard,f,j,Test,25,85,9.818056926810664,7.222251006984481,f,2.388926599989645,switch,2,7,A
12,7,switch/standard,f,j,Test,17,57,-6.953638003,-14.02238557,f,1.8738110000267625,standard,2,8,A
12,19,switch/standard,f,j,Test,33,113,26.34861461926153,27.630709460791525,j,2.5404489999637008,standard,2,9,B
12,15,switch/standard,f,j,A,25,140,12.129448921922751,51.77476957,j,1.1942559000453912,switch,2,10,B
12,14,switch/standard,f,j,A,25,113,8.045214428,27.52140038259675,f,10.18412890000036,standard,2,11,A
12,6,switch/standard,f,j,B,17,30,-3.854444584,-37.8392214,f,0.9838627999997698,standard,2,12,A
12,17,switch/standard,f,j,B,33,57,26.21866752665977,-14.79865055,j,4.989974899974186,switch,2,13,B
12,25,switch/standard,f,j,Test,40,140,38.35549087886737,42.56620206713007,j,1.0254993000417016,standard,2,14,B
12,10,switch/standard,f,j,A,17,140,-1.732665378,46.70107673091564,f,0.7658181999577209,switch,2,15,A
12,21,switch/standard,f,j,B,40,30,45.13982813678688,-35.30081098,j,1.4219928000238724,standard,2,16,B
12,25,switch/standard,f,j,Test,40,140,38.35549087886737,42.56620206713007,j,1.257897100003902,switch,2,17,B
12,7,switch/standard,f,j,Test,17,57,-6.953638003,-14.02238557,f,2.6211881000199355,standard,2,18,A
12,1,switch/standard,f,j,Test,10,30,-20.84275308,-36.88849953,f,0.6881801999988966,switch,2,19,A
12,16,switch/standard,f,j,B,33,30,30.19684495481618,-38.42373928,j,0.7534161999938078,standard,2,20,B
12,20,switch/standard,f,j,A,33,140,26.14711175410772,43.96860584938808,j,1.3287083000177518,standard,2,21,B
12,16,switch/standard,f,j,B,33,30,30.19684495481618,-38.42373928,j,0.9048522000084632,switch,2,22,B
12,19,switch/standard,f,j,Test,33,113,26.34861461926153,27.630709460791525,j,1.434677300043404,standard,2,23,B
12,15,switch/standard,f,j,A,25,140,12.129448921922751,51.77476957,f,2.0227596000186168,standard,2,24,A
12,2,switch/standard,f,j,A,10,57,-24.53495333,-12.0763604,f,1.2024021000252103,standard,2,25,A
12,8,switch/standard,f,j,A,17,85,-8.995342757,8.387433417892344,f,2.199998099997174,standard,2,26,A
12,1,switch/standard,f,j,Test,10,30,-20.84275308,-36.88849953,f,0.5731716000009328,standard,2,27,A
12,1,switch/standard,f,j,Test,10,30,-20.84275308,-36.88849953,f,0.8598854999872856,standard,2,28,A
12,18,switch/standard,f,j,B,33,85,26.821232143487904,6.976824754974014,j,1.1592283999780193,standard,2,29,B
12,4,switch/standard,f,j,A,10,113,-23.83479794,30.479004461502832,f,2.6538731000036933,standard,2,30,A
12,19,switch/standard,f,j,Test,33,113,26.34861461926153,27.630709460791525,j,2.775973999989219,switch,2,31,B
12,13,switch/standard,f,j,Test,25,85,9.818056926810664,7.222251006984481,f,2.3168384000309743,standard,2,32,A
12,19,switch/standard,f,j,Test,33,113,26.34861461926153,27.630709460791525,j,0.6305897000129335,standard,2,33,B
12,2,switch/standard,f,j,A,10,57,-24.53495333,-12.0763604,f,0.603028500045184,switch,2,34,A
12,19,switch/standard,f,j,Test,33,113,26.34861461926153,27.630709460791525,j,1.4969646999961697,standard,2,35,B
12,23,switch/standard,f,j,B,40,85,38.21996555398914,5.057706707981728,j,0.6896918999846093,standard,2,36,B
12,5,switch/standard,f,j,A,10,140,-16.71390068,50.111230393533226,f,0.6046669000061229,standard,2,37,A
12,7,switch/standard,f,j,Test,17,57,-6.953638003,-14.02238557,f,1.1774942000047304,switch,2,38,A
12,25,switch/standard,f,j,Test,40,140,38.35549087886737,42.56620206713007,j,0.5760129999835044,standard,2,39,B
12,7,switch/standard,f,j,Test,17,57,-6.953638003,-14.02238557,f,1.0698800000245683,standard,2,40,A
12,25,switch/standard,f,j,Test,40,140,38.35549087886737,42.56620206713007,j,0.576849700009916,standard,2,41,B
12,13,switch/standard,f,j,Test,25,85,9.818056926810664,7.222251006984481,f,2.0958356999908574,standard,2,42,A
12,7,switch/standard,f,j,Test,17,57,-6.953638003,-14.02238557,f,0.6728817999828607,standard,2,43,A
12,10,switch/standard,f,j,A,17,140,-1.732665378,46.70107673091564,f,2.7402294000494294,standard,2,44,A
12,24,switch/standard,f,j,B,40,113,37.71162000489743,24.31290640287821,j,0.6019919000100344,standard,2,45,B
12,6,switch/standard,f,j,B,17,30,-3.854444584,-37.8392214,f,1.1763525000424124,switch,2,46,A
12,12,switch/standard,f,j,B,25,57,9.177647168036223,-16.07892918,f,1.9257095999782905,standard,2,47,A
12,20,switch/standard,f,j,A,33,140,26.14711175410772,43.96860584938808,j,1.0615723000373691,switch,2,48,B
12,1,switch/standard,f,j,Test,10,30,-20.84275308,-36.88849953,f,1.8668397000292316,standard,2,49,A
12,3,switch/standard,f,j,A,10,85,-26.47077232,11.92758930596587,f,1.1078856000094677,standard,2,50,A
12,1,switch/standard,f,j,Test,10,30,-20.84275308,-36.88849953,f,0.5814404000411741,standard,2,51,A
12,22,switch/standard,f,j,B,40,57,41.88083319458841,-14.98800492,j,0.6203484000288881,standard,2,52,B
12,9,switch/standard,f,j,A,17,113,-5.541832691,31.07890857909637,f,0.736835699994117,standard,2,53,A
12,5,switch/standard,f,j,A,10,140,-16.71390068,50.111230393533226,j,1.505315700022038,switch,2,54,B
12,13,switch/standard,f,j,Test,25,85,9.818056926810664,7.222251006984481,j,0.8431264999671839,standard,2,55,B
12,8,switch/standard,f,j,A,17,85,-8.995342757,8.387433417892344,f,0.8280364000238478,standard,3,1,A
12,7,switch/standard,f,j,Test,17,57,-6.953638003,-14.02238557,f,0.8812375999987125,standard,3,2,A
12,4,switch/standard,f,j,A,10,113,-23.83479794,30.479004461502832,f,0.5232140999869443,standard,3,3,A
12,2,switch/standard,f,j,A,10,57,-24.53495333,-12.0763604,f,1.9083200999884864,switch,3,4,A
12,18,switch/standard,f,j,B,33,85,26.821232143487904,6.976824754974014,j,0.6767978999996558,standard,3,5,B
12,25,switch/standard,f,j,Test,40,140,38.35549087886737,42.56620206713007,j,0.43942840001545846,standard,3,6,B
12,14,switch/standard,f,j,A,25,113,8.045214428,27.52140038259675,f,0.7559610000462271,standard,3,7,A
12,25,switch/standard,f,j,Test,40,140,38.35549087886737,42.56620206713007,j,0.731578900013119,standard,3,8,B
12,25,switch/standard,f,j,Test,40,140,38.35549087886737,42.56620206713007,j,1.0998848999734037,switch,3,9,B
12,5,switch/standard,f,j,A,10,140,-16.71390068,50.111230393533226,f,0.878578900010325,standard,3,10,A
12,20,switch/standard,f,j,A,33,140,26.14711175410772,43.96860584938808,j,1.1609932000283152,switch,3,11,B
12,19,switch/standard,f,j,Test,33,113,26.34861461926153,27.630709460791525,j,0.7523485000128858,standard,3,12,B
12,19,switch/standard,f,j,Test,33,113,26.34861461926153,27.630709460791525,j,1.2319757000077516,switch,3,13,B
12,12,switch/standard,f,j,B,25,57,9.177647168036223,-16.07892918,f,3.1955592000158504,standard,3,14,A
12,1,switch/standard,f,j,Test,10,30,-20.84275308,-36.88849953,f,0.51239590003388,standard,3,15,A
12,9,switch/standard,f,j,A,17,113,-5.541832691,31.07890857909637,f,0.6180899000028148,standard,3,16,A
12,7,switch/standard,f,j,Test,17,57,-6.953638003,-14.02238557,f,0.5423242000397295,standard,3,17,A
12,25,switch/standard,f,j,Test,40,140,38.35549087886737,42.56620206713007,j,0.551263699948322,standard,3,18,B
12,2,switch/standard,f,j,A,10,57,-24.53495333,-12.0763604,f,0.5346697000204585,standard,3,19,A
12,15,switch/standard,f,j,A,25,140,12.129448921922751,51.77476957,f,0.8472912000142969,standard,3,20,A
12,17,switch/standard,f,j,B,33,57,26.21866752665977,-14.79865055,f,2.498022499959916,switch,3,21,A
12,6,switch/standard,f,j,B,17,30,-3.854444584,-37.8392214,f,0.6203594999969937,standard,3,22,A
12,16,switch/standard,f,j,B,33,30,30.19684495481618,-38.42373928,j,1.3206205999595113,switch,3,23,B
12,10,switch/standard,f,j,A,17,140,-1.732665378,46.70107673091564,f,1.6331494000041855,standard,3,24,A
12,1,switch/standard,f,j,Test,10,30,-20.84275308,-36.88849953,f,0.5005774000310339,standard,3,25,A
12,5,switch/standard,f,j,A,10,140,-16.71390068,50.111230393533226,f,0.6238031000248156,switch,3,26,A
12,17,switch/standard,f,j,B,33,57,26.21866752665977,-14.79865055,j,0.5884560000267811,standard,3,27,B
12,19,switch/standard,f,j,Test,33,113,26.34861461926153,27.630709460791525,j,0.5303238999913447,standard,3,28,B
12,19,switch/standard,f,j,Test,33,113,26.34861461926153,27.630709460791525,j,0.9868977000005544,standard,3,29,B
12,24,switch/standard,f,j,B,40,113,37.71162000489743,24.31290640287821,j,1.186452800000552,switch,3,30,B
12,19,switch/standard,f,j,Test,33,113,26.34861461926153,27.630709460791525,f,2.919393600022886,standard,3,31,A
12,13,switch/standard,f,j,Test,25,85,9.818056926810664,7.222251006984481,f,1.1099052000208758,standard,3,32,A
12,15,switch/standard,f,j,A,25,140,12.129448921922751,51.77476957,j,1.487060399958864,switch,3,33,B
12,13,switch/standard,f,j,Test,25,85,9.818056926810664,7.222251006984481,j,3.185708799981512,standard,3,34,B
12,13,switch/standard,f,j,Test,25,85,9.818056926810664,7.222251006984481,j,1.8382622999488376,standard,3,35,B
12,3,switch/standard,f,j,A,10,85,-26.47077232,11.92758930596587,f,0.9134809999959544,standard,3,36,A
12,13,switch/standard,f,j,Test,25,85,9.818056926810664,7.222251006984481,f,0.8838032999774441,standard,3,37,A
12,21,switch/standard,f,j,B,40,30,45.13982813678688,-35.30081098,j,0.9661695000249892,switch,3,38,B
12,22,switch/standard,f,j,B,40,57,41.88083319458841,-14.98800492,j,1.2853978000348434,standard,3,39,B
12,10,switch/standard,f,j,A,17,140,-1.732665378,46.70107673091564,f,0.6223674999782816,switch,3,40,A
12,1,switch/standard,f,j,Test,10,30,-20.84275308,-36.88849953,f,1.99528149998514,standard,3,41,A
12,13,switch/standard,f,j,Test,25,85,9.818056926810664,7.222251006984481,f,1.201588399999309,switch,3,42,A
12,16,switch/standard,f,j,B,33,30,30.19684495481618,-38.42373928,j,0.6063404000014998,standard,3,43,B
12,20,switch/standard,f,j,A,33,140,26.14711175410772,43.96860584938808,j,0.9005044000223279,standard,3,44,B
12,23,switch/standard,f,j,B,40,85,38.21996555398914,5.057706707981728,j,0.7096680999966338,standard,3,45,B
12,7,switch/standard,f,j,Test,17,57,-6.953638003,-14.02238557,f,0.623156099987682,switch,3,46,A
12,11,switch/standard,f,j,B,25,30,13.264524555129096,-38.2203846,f,0.5084633000078611,standard,3,47,A
12,21,switch/standard,f,j,B,40,30,45.13982813678688,-35.30081098,j,0.7424630000023171,standard,3,48,B
12,7,switch/standard,f,j,Test,17,57,-6.953638003,-14.02238557,f,1.0145068999845537,standard,3,49,A
12,1,switch/standard,f,j,Test,10,30,-20.84275308,-36.88849953,f,0.4520542999962345,standard,3,50,A
12,7,switch/standard,f,j,Test,17,57,-6.953638003,-14.02238557,f,0.5749226000043564,standard,3,51,A
12,6,switch/standard,f,j,B,17,30,-3.854444584,-37.8392214,f,1.3639808000298217,switch,3,52,A
12,25,switch/standard,f,j,Test,40,140,38.35549087886737,42.56620206713007,j,0.5628299000090919,standard,3,53,B
12,1,switch/standard,f,j,Test,10,30,-20.84275308,-36.88849953,f,0.9471431999700144,switch,3,54,A
12,24,switch/standard,f,j,B,40,113,37.71162000489743,24.31290640287821,j,1.818218300002627,standard,3,55,B
13,24,standard/switch,f,j,B,40,113,37.71162000489743,24.31290640287821,f,4.552172099996824,standard,1,1,A
13,3,standard/switch,f,j,A,10,85,-26.47077232,11.92758930596587,f,4.014539499999955,standard,1,2,A
13,13,standard/switch,f,j,Test,25,85,9.818056926810664,7.222251006984481,j,1.9291708999953696,standard,1,3,B
13,1,standard/switch,f,j,Test,10,30,-20.84275308,-36.88849953,f,2.6656633999955375,switch,1,4,A
13,19,standard/switch,f,j,Test,33,113,26.34861461926153,27.630709460791525,f,2.626349400001345,standard,1,5,A
13,25,standard/switch,f,j,Test,40,140,38.35549087886737,42.56620206713007,j,1.4460865999863015,switch,1,6,B
13,19,standard/switch,f,j,Test,33,113,26.34861461926153,27.630709460791525,f,2.001145300018834,standard,1,7,A
13,16,standard/switch,f,j,B,33,30,30.19684495481618,-38.42373928,f,3.270169099996565,switch,1,8,A
13,25,standard/switch,f,j,Test,40,140,38.35549087886737,42.56620206713007,f,1.4801612999872304,standard,1,9,A
13,12,standard/switch,f,j,B,25,57,9.177647168036223,-16.07892918,f,2.241567499993834,standard,1,10,A
13,21,standard/switch,f,j,B,40,30,45.13982813678688,-35.30081098,f,3.7969887999934144,switch,1,11,A
13,8,standard/switch,f,j,A,17,85,-8.995342757,8.387433417892344,j,2.624755600001663,standard,1,12,B
13,20,standard/switch,f,j,A,33,140,26.14711175410772,43.96860584938808,f,1.3959637000225484,standard,1,13,A
13,5,standard/switch,f,j,A,10,140,-16.71390068,50.111230393533226,f,1.0420081999909598,standard,1,14,A
13,1,standard/switch,f,j,Test,10,30,-20.84275308,-36.88849953,j,1.1966812000027858,standard,1,15,B
13,2,standard/switch,f,j,A,10,57,-24.53495333,-12.0763604,f,1.8645776999765076,switch,1,16,A
13,18,standard/switch,f,j,B,33,85,26.821232143487904,6.976824754974014,j,2.2626869999803603,standard,1,17,B
13,11,standard/switch,f,j,B,25,30,13.264524555129096,-38.2203846,j,1.5927509999892209,standard,1,18,B
13,13,standard/switch,f,j,Test,25,85,9.818056926810664,7.222251006984481,f,3.30263340001693,standard,1,19,A
13,1,standard/switch,f,j,Test,10,30,-20.84275308,-36.88849953,j,1.4377656000142451,standard,1,20,B
13,17,standard/switch,f,j,B,33,57,26.21866752665977,-14.79865055,j,1.4646283999900334,standard,1,21,B
13,25,standard/switch,f,j,Test,40,140,38.35549087886737,42.56620206713007,f,0.9563589000026697,standard,1,22,A
13,6,standard/switch,f,j,B,17,30,-3.854444584,-37.8392214,f,1.108105399995111,switch,1,23,A
13,19,standard/switch,f,j,Test,33,113,26.34861461926153,27.630709460791525,f,2.1005193000019062,standard,1,24,A
13,9,standard/switch,f,j,A,17,113,-5.541832691,31.07890857909637,f,1.709905699972296,standard,1,25,A
13,16,standard/switch,f,j,B,33,30,30.19684495481618,-38.42373928,j,0.998726899997564,standard,1,26,B
13,7,standard/switch,f,j,Test,17,57,-6.953638003,-14.02238557,f,1.6443316000222694,switch,1,27,A
13,19,standard/switch,f,j,Test,33,113,26.34861461926153,27.630709460791525,f,2.024684400006663,standard,1,28,A
13,5,standard/switch,f,j,A,10,140,-16.71390068,50.111230393533226,j,1.8761142999865117,switch,1,29,B
13,13,standard/switch,f,j,Test,25,85,9.818056926810664,7.222251006984481,j,2.342230699985521,standard,1,30,B
13,20,standard/switch,f,j,A,33,140,26.14711175410772,43.96860584938808,j,1.3409285000234377,switch,1,31,B
13,25,standard/switch,f,j,Test,40,140,38.35549087886737,42.56620206713007,f,1.7642756999994162,standard,1,32,A
13,1,standard/switch,f,j,Test,10,30,-20.84275308,-36.88849953,j,1.139037700020708,standard,1,33,B
13,10,standard/switch,f,j,A,17,140,-1.732665378,46.70107673091564,j,1.371307399997022,switch,1,34,B
13,6,standard/switch,f,j,B,17,30,-3.854444584,-37.8392214,j,1.6972309999982826,standard,1,35,B
13,7,standard/switch,f,j,Test,17,57,-6.953638003,-14.02238557,j,1.2425923999981023,standard,1,36,B
13,15,standard/switch,f,j,A,25,140,12.129448921922751,51.77476957,f,1.24516059999587,standard,1,37,A
13,19,standard/switch,f,j,Test,33,113,26.34861461926153,27.630709460791525,j,3.088996100006625,switch,1,38,B
13,7,standard/switch,f,j,Test,17,57,-6.953638003,-14.02238557,j,1.1866450999805238,standard,1,39,B
13,13,standard/switch,f,j,Test,25,85,9.818056926810664,7.222251006984481,j,6.7049344000115525,switch,1,40,B
13,7,standard/switch,f,j,Test,17,57,-6.953638003,-14.02238557,j,1.9822295999911148,standard,1,41,B
13,25,standard/switch,f,j,Test,40,140,38.35549087886737,42.56620206713007,f,0.9637289000093006,standard,1,42,A
13,21,standard/switch,f,j,B,40,30,45.13982813678688,-35.30081098,j,0.8757812999829184,standard,1,43,B
13,2,standard/switch,f,j,A,10,57,-24.53495333,-12.0763604,j,1.2217520000122022,standard,1,44,B
13,22,standard/switch,f,j,B,40,57,41.88083319458841,-14.98800492,j,1.002402299985988,standard,1,45,B
13,15,standard/switch,f,j,A,25,140,12.129448921922751,51.77476957,j,4.943884099979186,switch,1,46,B
13,14,standard/switch,f,j,A,25,113,8.045214428,27.52140038259675,f,3.6693814000173006,standard,1,47,A
13,10,standard/switch,f,j,A,17,140,-1.732665378,46.70107673091564,f,0.9012425999972038,standard,1,48,A
13,7,standard/switch,f,j,Test,17,57,-6.953638003,-14.02238557,j,0.9356094000104348,standard,1,49,B
13,24,standard/switch,f,j,B,40,113,37.71162000489743,24.31290640287821,j,2.2717016999959014,switch,1,50,B
13,1,standard/switch,f,j,Test,10,30,-20.84275308,-36.88849953,j,1.257042100012768,standard,1,51,B
13,23,standard/switch,f,j,B,40,85,38.21996555398914,5.057706707981728,j,1.867991900013294,standard,1,52,B
13,17,standard/switch,f,j,B,33,57,26.21866752665977,-14.79865055,f,2.2306303000077605,switch,1,53,A
13,13,standard/switch,f,j,Test,25,85,9.818056926810664,7.222251006984481,j,1.753653599997051,standard,1,54,B
13,4,standard/switch,f,j,A,10,113,-23.83479794,30.479004461502832,f,2.080465799983358,standard,1,55,A
13,1,standard/switch,f,j,Test,10,30,-20.84275308,-36.88849953,j,1.8729685000143943,standard,2,1,B
13,25,standard/switch,f,j,Test,40,140,38.35549087886737,42.56620206713007,f,1.0275253000145312,standard,2,2,A
13,5,standard/switch,f,j,A,10,140,-16.71390068,50.111230393533226,f,2.343172799999593,standard,2,3,A
13,16,standard/switch,f,j,B,33,30,30.19684495481618,-38.42373928,f,2.0060106000164524,switch,2,4,A
13,1,standard/switch,f,j,Test,10,30,-20.84275308,-36.88849953,j,2.2265700999996625,standard,2,5,B
13,17,standard/switch,f,j,B,33,57,26.21866752665977,-14.79865055,f,3.662333899992518,switch,2,6,A
13,7,standard/switch,f,j,Test,17,57,-6.953638003,-14.02238557,j,4.143351900012931,standard,2,7,B
13,10,standard/switch,f,j,A,17,140,-1.732665378,46.70107673091564,j,2.389405199995963,switch,2,8,B
13,9,standard/switch,f,j,A,17,113,-5.541832691,31.07890857909637,f,4.522785400011344,standard,2,9,A
13,14,standard/switch,f,j,A,25,113,8.045214428,27.52140038259675,f,1.5045929999905638,standard,2,10,A
13,19,standard/switch,f,j,Test,33,113,26.34861461926153,27.630709460791525,f,1.578386800014414,standard,2,11,A
13,20,standard/switch,f,j,A,33,140,26.14711175410772,43.96860584938808,j,1.2550464999803808,switch,2,12,B
13,11,standard/switch,f,j,B,25,30,13.264524555129096,-38.2203846,j,1.2901778999948874,standard,2,13,B
13,19,standard/switch,f,j,Test,33,113,26.34861461926153,27.630709460791525,f,1.885265499993693,standard,2,14,A
13,2,standard/switch,f,j,A,10,57,-24.53495333,-12.0763604,f,2.1893974999838974,switch,2,15,A
13,13,standard/switch,f,j,Test,25,85,9.818056926810664,7.222251006984481,j,5.891166200017324,standard,2,16,B
13,7,standard/switch,f,j,Test,17,57,-6.953638003,-14.02238557,j,2.2018849999876693,standard,2,17,B
13,25,standard/switch,f,j,Test,40,140,38.35549087886737,42.56620206713007,f,1.1663753999746405,standard,2,18,A
13,13,standard/switch,f,j,Test,25,85,9.818056926810664,7.222251006984481,j,1.350457099993946,standard,2,19,B
13,1,standard/switch,f,j,Test,10,30,-20.84275308,-36.88849953,j,1.1660349000012502,standard,2,20,B
13,13,standard/switch,f,j,Test,25,85,9.818056926810664,7.222251006984481,f,2.9336201999976765,switch,2,21,A
13,6,standard/switch,f,j,B,17,30,-3.854444584,-37.8392214,j,1.2031518000003416,standard,2,22,B
13,22,standard/switch,f,j,B,40,57,41.88083319458841,-14.98800492,j,1.1851673999917691,standard,2,23,B
13,13,standard/switch,f,j,Test,25,85,9.818056926810664,7.222251006984481,f,1.3584607999946456,standard,2,24,A
13,3,standard/switch,f,j,A,10,85,-26.47077232,11.92758930596587,j,2.7493224999925587,standard,2,25,B
13,12,standard/switch,f,j,B,25,57,9.177647168036223,-16.07892918,j,0.8611325999954715,standard,2,26,B
13,25,standard/switch,f,j,Test,40,140,38.35549087886737,42.56620206713007,f,0.9349482000106946,standard,2,27,A
13,16,standard/switch,f,j,B,33,30,30.19684495481618,-38.42373928,j,0.9748982000164688,standard,2,28,B
13,7,standard/switch,f,j,Test,17,57,-6.953638003,-14.02238557,j,1.2544705999898724,standard,2,29,B
13,23,standard/switch,f,j,B,40,85,38.21996555398914,5.057706707981728,f,3.0416411999904085,standard,2,30,A
13,24,standard/switch,f,j,B,40,113,37.71162000489743,24.31290640287821,j,1.6993074000056367,switch,2,31,B
13,1,standard/switch,f,j,Test,10,30,-20.84275308,-36.88849953,j,1.268833000009181,standard,2,32,B
13,21,standard/switch,f,j,B,40,30,45.13982813678688,-35.30081098,j,0.6639386000169907,standard,2,33,B
13,13,standard/switch,f,j,Test,25,85,9.818056926810664,7.222251006984481,f,1.1864745000202674,standard,2,34,A
13,7,standard/switch,f,j,Test,17,57,-6.953638003,-14.02238557,f,1.6646892999997362,switch,2,35,A
13,7,standard/switch,f,j,Test,17,57,-6.953638003,-14.02238557,j,1.3321057000139265,standard,2,36,B
13,1,standard/switch,f,j,Test,10,30,-20.84275308,-36.88849953,f,3.604139300005045,switch,2,37,A
13,20,standard/switch,f,j,A,33,140,26.14711175410772,43.96860584938808,f,1.534961400000611,standard,2,38,A
13,8,standard/switch,f,j,A,17,85,-8.995342757,8.387433417892344,f,1.67173439997714,standard,2,39,A
13,25,standard/switch,f,j,Test,40,140,38.35549087886737,42.56620206713007,j,1.3137961000029463,switch,2,40,B
13,18,standard/switch,f,j,B,33,85,26.821232143487904,6.976824754974014,j,2.4993125000037253,standard,2,41,B
13,24,standard/switch,f,j,B,40,113,37.71162000489743,24.31290640287821,f,2.4111978000146337,standard,2,42,A
13,6,standard/switch,f,j,B,17,30,-3.854444584,-37.8392214,f,1.4316447000019252,switch,2,43,A
13,4,standard/switch,f,j,A,10,113,-23.83479794,30.479004461502832,f,4.835738499998115,standard,2,44,A
13,21,standard/switch,f,j,B,40,30,45.13982813678688,-35.30081098,f,1.5809809000056705,switch,2,45,A
13,15,standard/switch,f,j,A,25,140,12.129448921922751,51.77476957,f,2.1069646999822,standard,2,46,A
13,10,standard/switch,f,j,A,17,140,-1.732665378,46.70107673091564,f,1.795492400007788,standard,2,47,A
13,19,standard/switch,f,j,Test,33,113,26.34861461926153,27.630709460791525,j,2.1852389000123367,switch,2,48,B
13,19,standard/switch,f,j,Test,33,113,26.34861461926153,27.630709460791525,f,3.054605500015896,standard,2,49,A
13,15,standard/switch,f,j,A,25,140,12.129448921922751,51.77476957,j,1.6562765999988187,switch,2,50,B
13,19,standard/switch,f,j,Test,33,113,26.34861461926153,27.630709460791525,f,1.6512027999851853,standard,2,51,A
13,2,standard/switch,f,j,A,10,57,-24.53495333,-12.0763604,j,1.3098145000112709,standard,2,52,B
13,25,standard/switch,f,j,Test,40,140,38.35549087886737,42.56620206713007,f,1.936190600012196,standard,2,53,A
13,5,standard/switch,f,j,A,10,140,-16.71390068,50.111230393533226,j,1.9898541999864392,switch,2,54,B
13,17,standard/switch,f,j,B,33,57,26.21866752665977,-14.79865055,j,1.2444325000105891,standard,2,55,B
13,7,standard/switch,f,j,Test,17,57,-6.953638003,-14.02238557,j,1.6416934999870136,standard,3,1,B
13,2,standard/switch,f,j,A,10,57,-24.53495333,-12.0763604,f,1.4046168999921065,switch,3,2,A
13,20,standard/switch,f,j,A,33,140,26.14711175410772,43.96860584938808,f,2.2426069999928586,standard,3,3,A
13,12,standard/switch,f,j,B,25,57,9.177647168036223,-16.07892918,j,4.237002400011988,standard,3,4,B
13,7,standard/switch,f,j,Test,17,57,-6.953638003,-14.02238557,j,0.8005831000045873,standard,3,5,B
13,1,standard/switch,f,j,Test,10,30,-20.84275308,-36.88849953,j,0.6528854000207502,standard,3,6,B
13,17,standard/switch,f,j,B,33,57,26.21866752665977,-14.79865055,j,0.8009263999992982,standard,3,7,B
13,7,standard/switch,f,j,Test,17,57,-6.953638003,-14.02238557,j,0.8147257000091486,standard,3,8,B
13,20,standard/switch,f,j,A,33,140,26.14711175410772,43.96860584938808,j,1.612267599994084,switch,3,9,B
13,5,standard/switch,f,j,A,10,140,-16.71390068,50.111230393533226,f,1.2814835000026503,standard,3,10,A
13,5,standard/switch,f,j,A,10,140,-16.71390068,50.111230393533226,j,1.8511963000055405,switch,3,11,B
13,2,standard/switch,f,j,A,10,57,-24.53495333,-12.0763604,j,2.0388972999935504,standard,3,12,B
13,17,standard/switch,f,j,B,33,57,26.21866752665977,-14.79865055,f,2.625595199991949,switch,3,13,A
13,8,standard/switch,f,j,A,17,85,-8.995342757,8.387433417892344,j,1.5086886000062805,standard,3,14,B
13,3,standard/switch,f,j,A,10,85,-26.47077232,11.92758930596587,f,0.6697090999805368,standard,3,15,A
13,10,standard/switch,f,j,A,17,140,-1.732665378,46.70107673091564,f,0.90399819999584,standard,3,16,A
13,23,standard/switch,f,j,B,40,85,38.21996555398914,5.057706707981728,j,1.6587135999870952,standard,3,17,B
13,24,standard/switch,f,j,B,40,113,37.71162000489743,24.31290640287821,f,6.349362999986624,switch,3,18,A
13,19,standard/switch,f,j,Test,33,113,26.34861461926153,27.630709460791525,f,3.264552800013917,standard,3,19,A
13,6,standard/switch,f,j,B,17,30,-3.854444584,-37.8392214,f,1.850135600019712,switch,3,20,A
13,22,standard/switch,f,j,B,40,57,41.88083319458841,-14.98800492,j,3.597796699992614,standard,3,21,B
13,25,standard/switch,f,j,Test,40,140,38.35549087886737,42.56620206713007,f,2.1376733999932185,switch,3,22,A
13,25,standard/switch,f,j,Test,40,140,38.35549087886737,42.56620206713007,f,1.4332734000054188,standard,3,23,A
13,10,standard/switch,f,j,A,17,140,-1.732665378,46.70107673091564,j,3.5319009000086226,switch,3,24,B
13,13,standard/switch,f,j,Test,25,85,9.818056926810664,7.222251006984481,j,3.931844500009902,standard,3,25,B
13,13,standard/switch,f,j,Test,25,85,9.818056926810664,7.222251006984481,f,1.3782410999992862,switch,3,26,A
13,15,standard/switch,f,j,A,25,140,12.129448921922751,51.77476957,f,1.2805553999787662,standard,3,27,A
13,25,standard/switch,f,j,Test,40,140,38.35549087886737,42.56620206713007,f,0.8987530000158586,standard,3,28,A
13,19,standard/switch,f,j,Test,33,113,26.34861461926153,27.630709460791525,f,1.1088006000209134,standard,3,29,A
13,25,standard/switch,f,j,Test,40,140,38.35549087886737,42.56620206713007,f,0.6859069000056479,standard,3,30,A
13,14,standard/switch,f,j,A,25,113,8.045214428,27.52140038259675,f,0.968606299982639,standard,3,31,A
13,6,standard/switch,f,j,B,17,30,-3.854444584,-37.8392214,j,0.687401899980614,standard,3,32,B
13,19,standard/switch,f,j,Test,33,113,26.34861461926153,27.630709460791525,f,2.464867100003175,switch,3,33,A
13,1,standard/switch,f,j,Test,10,30,-20.84275308,-36.88849953,j,1.4673489000124391,standard,3,34,B
13,25,standard/switch,f,j,Test,40,140,38.35549087886737,42.56620206713007,f,0.8620266999932937,standard,3,35,A
13,24,standard/switch,f,j,B,40,113,37.71162000489743,24.31290640287821,f,1.0412187000038102,standard,3,36,A
13,1,standard/switch,f,j,Test,10,30,-20.84275308,-36.88849953,j,0.9729604000167456,standard,3,37,B
13,19,standard/switch,f,j,Test,33,113,26.34861461926153,27.630709460791525,f,1.9084918000153264,standard,3,38,A
13,16,standard/switch,f,j,B,33,30,30.19684495481618,-38.42373928,f,2.460132199979853,switch,3,39,A
13,13,standard/switch,f,j,Test,25,85,9.818056926810664,7.222251006984481,j,2.814166700001806,standard,3,40,B
13,1,standard/switch,f,j,Test,10,30,-20.84275308,-36.88849953,j,0.5707615000137594,standard,3,41,B
13,4,standard/switch,f,j,A,10,113,-23.83479794,30.479004461502832,f,0.8495177000004333,standard,3,42,A
13,19,standard/switch,f,j,Test,33,113,26.34861461926153,27.630709460791525,f,1.1092219999991355,standard,3,43,A
13,9,standard/switch,f,j,A,17,113,-5.541832691,31.07890857909637,f,1.078827099991031,standard,3,44,A
13,1,standard/switch,f,j,Test,10,30,-20.84275308,-36.88849953,f,1.3368079999927431,switch,3,45,A
13,13,standard/switch,f,j,Test,25,85,9.818056926810664,7.222251006984481,j,6.073096700012684,standard,3,46,B
13,16,standard/switch,f,j,B,33,30,30.19684495481618,-38.42373928,j,0.7592366999888327,standard,3,47,B
13,13,standard/switch,f,j,Test,25,85,9.818056926810664,7.222251006984481,j,0.6482168000075035,standard,3,48,B
13,7,standard/switch,f,j,Test,17,57,-6.953638003,-14.02238557,j,0.514913000020897,standard,3,49,B
13,11,standard/switch,f,j,B,25,30,13.264524555129096,-38.2203846,j,0.5251428000046872,standard,3,50,B
13,15,standard/switch,f,j,A,25,140,12.129448921922751,51.77476957,j,1.6625606000015978,switch,3,51,B
13,21,standard/switch,f,j,B,40,30,45.13982813678688,-35.30081098,j,1.0167371999996249,standard,3,52,B
13,21,standard/switch,f,j,B,40,30,45.13982813678688,-35.30081098,f,2.3817366999865044,switch,3,53,A
13,18,standard/switch,f,j,B,33,85,26.821232143487904,6.976824754974014,j,1.6762050999968778,standard,3,54,B
13,7,standard/switch,f,j,Test,17,57,-6.953638003,-14.02238557,f,1.173069399985252,switch,3,55,A
14,25,switch/standard,j,f,Test,40,140,38.35549087886737,42.56620206713007,j,7.084610000019893,standard,1,1,A
14,1,switch/standard,j,f,Test,10,30,-20.84275308,-36.88849953,j,6.029631900019012,standard,1,2,A
14,6,switch/standard,j,f,B,17,30,-3.854444584,-37.8392214,f,5.249669499986339,switch,1,3,B
14,25,switch/standard,j,f,Test,40,140,38.35549087886737,42.56620206713007,j,3.0619548999820836,standard,1,4,A
14,15,switch/standard,j,f,A,25,140,12.129448921922751,51.77476957,j,1.32211940002162,standard,1,5,A
14,2,switch/standard,j,f,A,10,57,-24.53495333,-12.0763604,j,1.439038900018204,standard,1,6,A
14,1,switch/standard,j,f,Test,10,30,-20.84275308,-36.88849953,j,1.7704756000312043,standard,1,7,A
14,9,switch/standard,j,f,A,17,113,-5.541832691,31.07890857909637,j,1.2807942000217736,standard,1,8,A
14,15,switch/standard,j,f,A,25,140,12.129448921922751,51.77476957,j,2.2744355999748223,switch,1,9,A
14,13,switch/standard,j,f,Test,25,85,9.818056926810664,7.222251006984481,f,4.587172899977304,standard,1,10,B
14,13,switch/standard,j,f,Test,25,85,9.818056926810664,7.222251006984481,j,2.393333600019105,standard,1,11,A
14,24,switch/standard,j,f,B,40,113,37.71162000489743,24.31290640287821,j,2.069432499993127,switch,1,12,A
14,7,switch/standard,j,f,Test,17,57,-6.953638003,-14.02238557,j,2.865794100041967,standard,1,13,A
14,16,switch/standard,j,f,B,33,30,30.19684495481618,-38.42373928,f,2.4074230000260286,switch,1,14,B
14,6,switch/standard,j,f,B,17,30,-3.854444584,-37.8392214,f,2.442030300037004,standard,1,15,B
14,7,switch/standard,j,f,Test,17,57,-6.953638003,-14.02238557,f,3.0066245999769308,standard,1,16,B
14,1,switch/standard,j,f,Test,10,30,-20.84275308,-36.88849953,f,1.2790984999737702,switch,1,17,B
14,17,switch/standard,j,f,B,33,57,26.21866752665977,-14.79865055,f,2.012244699988514,standard,1,18,B
14,1,switch/standard,j,f,Test,10,30,-20.84275308,-36.88849953,j,3.946876300033182,standard,1,19,A
14,20,switch/standard,j,f,A,33,140,26.14711175410772,43.96860584938808,j,1.567360799992457,standard,1,20,A
14,3,switch/standard,j,f,A,10,85,-26.47077232,11.92758930596587,j,0.734939799993299,standard,1,21,A
14,18,switch/standard,j,f,B,33,85,26.821232143487904,6.976824754974014,f,1.4303291999967769,standard,1,22,B
14,7,switch/standard,j,f,Test,17,57,-6.953638003,-14.02238557,j,10.874867200036531,standard,1,23,A
14,19,switch/standard,j,f,Test,33,113,26.34861461926153,27.630709460791525,j,5.581588500004727,switch,1,24,A
14,16,switch/standard,j,f,B,33,30,30.19684495481618,-38.42373928,f,1.288941900013015,standard,1,25,B
14,13,switch/standard,j,f,Test,25,85,9.818056926810664,7.222251006984481,j,1.2754136000294238,standard,1,26,A
14,25,switch/standard,j,f,Test,40,140,38.35549087886737,42.56620206713007,j,2.4938953000237234,switch,1,27,A
14,5,switch/standard,j,f,A,10,140,-16.71390068,50.111230393533226,j,3.3842986000236124,standard,1,28,A
14,19,switch/standard,j,f,Test,33,113,26.34861461926153,27.630709460791525,j,2.515329899964854,standard,1,29,A
14,13,switch/standard,j,f,Test,25,85,9.818056926810664,7.222251006984481,j,5.931819099991117,standard,1,30,A
14,25,switch/standard,j,f,Test,40,140,38.35549087886737,42.56620206713007,j,0.7987066999776289,standard,1,31,A
14,19,switch/standard,j,f,Test,33,113,26.34861461926153,27.630709460791525,j,0.7897761999629438,standard,1,32,A
14,24,switch/standard,j,f,B,40,113,37.71162000489743,24.31290640287821,j,1.1246775000472553,standard,1,33,A
14,21,switch/standard,j,f,B,40,30,45.13982813678688,-35.30081098,f,2.0456794999772683,switch,1,34,B
14,25,switch/standard,j,f,Test,40,140,38.35549087886737,42.56620206713007,j,0.7252383999875747,standard,1,35,A
14,5,switch/standard,j,f,A,10,140,-16.71390068,50.111230393533226,j,2.1734870999935083,switch,1,36,A
14,4,switch/standard,j,f,A,10,113,-23.83479794,30.479004461502832,j,1.5104311000322923,standard,1,37,A
14,10,switch/standard,j,f,A,17,140,-1.732665378,46.70107673091564,j,1.2230687999981456,standard,1,38,A
14,1,switch/standard,j,f,Test,10,30,-20.84275308,-36.88849953,f,1.43565130000934,standard,1,39,B
14,7,switch/standard,j,f,Test,17,57,-6.953638003,-14.02238557,f,1.0953749000327662,switch,1,40,B
14,7,switch/standard,j,f,Test,17,57,-6.953638003,-14.02238557,f,1.4092156999977306,standard,1,41,B
14,13,switch/standard,j,f,Test,25,85,9.818056926810664,7.222251006984481,j,1.365365500038024,switch,1,42,A
14,12,switch/standard,j,f,B,25,57,9.177647168036223,-16.07892918,f,0.9335622999933548,standard,1,43,B
14,10,switch/standard,j,f,A,17,140,-1.732665378,46.70107673091564,j,0.8245804999605753,switch,1,44,A
14,14,switch/standard,j,f,A,25,113,8.045214428,27.52140038259675,j,0.6253988000098616,standard,1,45,A
14,22,switch/standard,j,f,B,40,57,41.88083319458841,-14.98800492,f,0.5194257000111975,standard,1,46,B
14,2,switch/standard,j,f,A,10,57,-24.53495333,-12.0763604,f,1.8126586999860592,switch,1,47,B
14,23,switch/standard,j,f,B,40,85,38.21996555398914,5.057706707981728,j,0.7893433999852277,standard,1,48,A
14,17,switch/standard,j,f,B,33,57,26.21866752665977,-14.79865055,f,1.306237799988594,switch,1,49,B
14,19,switch/standard,j,f,Test,33,113,26.34861461926153,27.630709460791525,j,1.1518642000155523,standard,1,50,A
14,20,switch/standard,j,f,A,33,140,26.14711175410772,43.96860584938808,j,0.9604399999952876,switch,1,51,A
14,21,switch/standard,j,f,B,40,30,45.13982813678688,-35.30081098,f,0.5858461000025272,standard,1,52,B
14,19,switch/standard,j,f,Test,33,113,26.34861461926153,27.630709460791525,j,1.0486657000146806,standard,1,53,A
14,8,switch/standard,j,f,A,17,85,-8.995342757,8.387433417892344,j,0.8691199999884702,standard,1,54,A
14,11,switch/standard,j,f,B,25,30,13.264524555129096,-38.2203846,f,0.5838813000009395,standard,1,55,B
14,16,switch/standard,j,f,B,33,30,30.19684495481618,-38.42373928,f,0.7981231999583542,standard,2,1,B
14,15,switch/standard,j,f,A,25,140,12.129448921922751,51.77476957,j,0.604067699983716,switch,2,2,A
14,3,switch/standard,j,f,A,10,85,-26.47077232,11.92758930596587,j,1.0255851999972947,standard,2,3,A
14,10,switch/standard,j,f,A,17,140,-1.732665378,46.70107673091564,j,0.669786499987822,standard,2,4,A
14,25,switch/standard,j,f,Test,40,140,38.35549087886737,42.56620206713007,j,1.0809958000318147,standard,2,5,A
14,7,switch/standard,j,f,Test,17,57,-6.953638003,-14.02238557,f,1.122169100039173,switch,2,6,B
14,21,switch/standard,j,f,B,40,30,45.13982813678688,-35.30081098,f,1.1086019999929704,standard,2,7,B
14,20,switch/standard,j,f,A,33,140,26.14711175410772,43.96860584938808,j,0.6683930000290275,standard,2,8,A
14,21,switch/standard,j,f,B,40,30,45.13982813678688,-35.30081098,f,1.7236274000024423,switch,2,9,B
14,13,switch/standard,j,f,Test,25,85,9.818056926810664,7.222251006984481,j,1.417546799988486,standard,2,10,A
14,8,switch/standard,j,f,A,17,85,-8.995342757,8.387433417892344,j,6.253712699981406,standard,2,11,A
14,15,switch/standard,j,f,A,25,140,12.129448921922751,51.77476957,j,6.725197399966419,standard,2,12,A
14,19,switch/standard,j,f,Test,33,113,26.34861461926153,27.630709460791525,j,1.9699945999891495,standard,2,13,A
14,18,switch/standard,j,f,B,33,85,26.821232143487904,6.976824754974014,f,0.7828319999971427,standard,2,14,B
14,16,switch/standard,j,f,B,33,30,30.19684495481618,-38.42373928,f,1.0138379000127316,switch,2,15,B
14,1,switch/standard,j,f,Test,10,30,-20.84275308,-36.88849953,f,2.428129000007175,standard,2,16,B
14,13,switch/standard,j,f,Test,25,85,9.818056926810664,7.222251006984481,f,1.5897771999589168,switch,2,17,B
14,12,switch/standard,j,f,B,25,57,9.177647168036223,-16.07892918,j,1.2842325000092387,standard,2,18,A
14,1,switch/standard,j,f,Test,10,30,-20.84275308,-36.88849953,f,1.0939922999823466,switch,2,19,B
14,14,switch/standard,j,f,A,25,113,8.045214428,27.52140038259675,j,2.1579912999877706,standard,2,20,A
14,10,switch/standard,j,f,A,17,140,-1.732665378,46.70107673091564,j,1.4289932000101544,switch,2,21,A
14,23,switch/standard,j,f,B,40,85,38.21996555398914,5.057706707981728,f,0.9343648999929428,standard,2,22,B
14,25,switch/standard,j,f,Test,40,140,38.35549087886737,42.56620206713007,j,1.6358777999994345,standard,2,23,A
14,1,switch/standard,j,f,Test,10,30,-20.84275308,-36.88849953,j,2.359274899994489,standard,2,24,A
14,25,switch/standard,j,f,Test,40,140,38.35549087886737,42.56620206713007,j,1.4603594000218436,switch,2,25,A
14,5,switch/standard,j,f,A,10,140,-16.71390068,50.111230393533226,j,0.8271397000062279,standard,2,26,A
14,19,switch/standard,j,f,Test,33,113,26.34861461926153,27.630709460791525,j,1.3167353000026196,standard,2,27,A
14,13,switch/standard,j,f,Test,25,85,9.818056926810664,7.222251006984481,j,6.453807199955918,standard,2,28,A
14,13,switch/standard,j,f,Test,25,85,9.818056926810664,7.222251006984481,f,9.870457200042438,standard,2,29,B
14,4,switch/standard,j,f,A,10,113,-23.83479794,30.479004461502832,j,0.8586875000037253,standard,2,30,A
14,9,switch/standard,j,f,A,17,113,-5.541832691,31.07890857909637,j,0.8376905999612063,standard,2,31,A
14,1,switch/standard,j,f,Test,10,30,-20.84275308,-36.88849953,f,0.8179831000161357,standard,2,32,B
14,25,switch/standard,j,f,Test,40,140,38.35549087886737,42.56620206713007,j,1.269924100022763,standard,2,33,A
14,6,switch/standard,j,f,B,17,30,-3.854444584,-37.8392214,f,0.825953199993819,standard,2,34,B
14,7,switch/standard,j,f,Test,17,57,-6.953638003,-14.02238557,f,14.885569099977149,standard,2,35,B
14,7,switch/standard,j,f,Test,17,57,-6.953638003,-14.02238557,f,0.7648131999885663,standard,2,36,B
14,6,switch/standard,j,f,B,17,30,-3.854444584,-37.8392214,f,0.8571323999785818,switch,2,37,B
14,24,switch/standard,j,f,B,40,113,37.71162000489743,24.31290640287821,f,1.0546557999914512,standard,2,38,B
14,17,switch/standard,j,f,B,33,57,26.21866752665977,-14.79865055,f,1.7475876999669708,switch,2,39,B
14,17,switch/standard,j,f,B,33,57,26.21866752665977,-14.79865055,f,0.6981943999999203,standard,2,40,B
14,13,switch/standard,j,f,Test,25,85,9.818056926810664,7.222251006984481,j,36.10103279998293,standard,2,41,A
14,11,switch/standard,j,f,B,25,30,13.264524555129096,-38.2203846,f,0.956010200025048,standard,2,42,B
14,24,switch/standard,j,f,B,40,113,37.71162000489743,24.31290640287821,j,0.8433159000123851,switch,2,43,A
14,22,switch/standard,j,f,B,40,57,41.88083319458841,-14.98800492,f,0.6909394999966025,standard,2,44,B
14,2,switch/standard,j,f,A,10,57,-24.53495333,-12.0763604,j,1.593402199971024,standard,2,45,A
14,7,switch/standard,j,f,Test,17,57,-6.953638003,-14.02238557,j,1.5121186000178568,standard,2,46,A
14,19,switch/standard,j,f,Test,33,113,26.34861461926153,27.630709460791525,j,1.70278849999886,switch,2,47,A
14,7,switch/standard,j,f,Test,17,57,-6.953638003,-14.02238557,f,0.7345620000269264,standard,2,48,B
14,5,switch/standard,j,f,A,10,140,-16.71390068,50.111230393533226,j,2.115887299994938,switch,2,49,A
14,19,switch/standard,j,f,Test,33,113,26.34861461926153,27.630709460791525,j,7.479710799991153,standard,2,50,A
14,2,switch/standard,j,f,A,10,57,-24.53495333,-12.0763604,f,1.1164280999801122,switch,2,51,B
14,1,switch/standard,j,f,Test,10,30,-20.84275308,-36.88849953,f,1.885975299985148,standard,2,52,B
14,25,switch/standard,j,f,Test,40,140,38.35549087886737,42.56620206713007,j,1.0488077999907546,standard,2,53,A
14,19,switch/standard,j,f,Test,33,113,26.34861461926153,27.630709460791525,j,6.492580399964936,standard,2,54,A
14,20,switch/standard,j,f,A,33,140,26.14711175410772,43.96860584938808,j,1.1540738000185229,switch,2,55,A
14,7,switch/standard,j,f,Test,17,57,-6.953638003,-14.02238557,j,9.601144900021607,standard,3,1,A
14,21,switch/standard,j,f,B,40,30,45.13982813678688,-35.30081098,f,0.913375999953132,standard,3,2,B
14,1,switch/standard,j,f,Test,10,30,-20.84275308,-36.88849953,j,2.0107139000319876,standard,3,3,A
14,24,switch/standard,j,f,B,40,113,37.71162000489743,24.31290640287821,j,1.5592924000229686,standard,3,4,A
14,25,switch/standard,j,f,Test,40,140,38.35549087886737,42.56620206713007,j,1.139553899993189,switch,3,5,A
14,1,switch/standard,j,f,Test,10,30,-20.84275308,-36.88849953,j,1.5250667000073008,standard,3,6,A
14,16,switch/standard,j,f,B,33,30,30.19684495481618,-38.42373928,f,1.2200989000266418,switch,3,7,B
14,18,switch/standard,j,f,B,33,85,26.821232143487904,6.976824754974014,j,0.8020544999744743,standard,3,8,A
14,14,switch/standard,j,f,A,25,113,8.045214428,27.52140038259675,j,2.4238308999920264,standard,3,9,A
14,17,switch/standard,j,f,B,33,57,26.21866752665977,-14.79865055,f,0.6949694000068121,switch,3,10,B
14,15,switch/standard,j,f,A,25,140,12.129448921922751,51.77476957,j,0.657801199995447,standard,3,11,A
14,10,switch/standard,j,f,A,17,140,-1.732665378,46.70107673091564,j,1.0963850999833085,switch,3,12,A
14,19,switch/standard,j,f,Test,33,113,26.34861461926153,27.630709460791525,j,0.7451931000105105,standard,3,13,A
14,7,switch/standard,j,f,Test,17,57,-6.953638003,-14.02238557,j,1.4427477000281217,standard,3,14,A
14,1,switch/standard,j,f,Test,10,30,-20.84275308,-36.88849953,f,0.996861900028307,switch,3,15,B
14,11,switch/standard,j,f,B,25,30,13.264524555129096,-38.2203846,f,1.5158497999655085,standard,3,16,B
14,17,switch/standard,j,f,B,33,57,26.21866752665977,-14.79865055,f,1.2455394999706186,standard,3,17,B
14,13,switch/standard,j,f,Test,25,85,9.818056926810664,7.222251006984481,j,0.6966878999955952,standard,3,18,A
14,6,switch/standard,j,f,B,17,30,-3.854444584,-37.8392214,f,0.9874167999951168,standard,3,19,B
14,15,switch/standard,j,f,A,25,140,12.129448921922751,51.77476957,j,0.7121065999963321,switch,3,20,A
14,19,switch/standard,j,f,Test,33,113,26.34861461926153,27.630709460791525,j,1.4498013000120409,standard,3,21,A
14,7,switch/standard,j,f,Test,17,57,-6.953638003,-14.02238557,f,0.8622682999703102,switch,3,22,B
14,25,switch/standard,j,f,Test,40,140,38.35549087886737,42.56620206713007,j,0.5921601000009105,standard,3,23,A
14,6,switch/standard,j,f,B,17,30,-3.854444584,-37.8392214,f,0.520335300010629,switch,3,24,B
14,25,switch/standard,j,f,Test,40,140,38.35549087886737,42.56620206713007,j,0.5366325000068173,standard,3,25,A
14,5,switch/standard,j,f,A,10,140,-16.71390068,50.111230393533226,j,1.0927118000108749,switch,3,26,A
14,16,switch/standard,j,f,B,33,30,30.19684495481618,-38.42373928,f,0.5605958999949507,standard,3,27,B
14,2,switch/standard,j,f,A,10,57,-24.53495333,-12.0763604,f,1.330065399990417,switch,3,28,B
14,23,switch/standard,j,f,B,40,85,38.21996555398914,5.057706707981728,f,1.2589075000141747,standard,3,29,B
14,5,switch/standard,j,f,A,10,140,-16.71390068,50.111230393533226,j,2.6346483000088483,standard,3,30,A
14,25,switch/standard,j,f,Test,40,140,38.35549087886737,42.56620206713007,j,0.6786651999573223,standard,3,31,A
14,13,switch/standard,j,f,Test,25,85,9.818056926810664,7.222251006984481,j,0.7221098000300117,standard,3,32,A
14,20,switch/standard,j,f,A,33,140,26.14711175410772,43.96860584938808,j,0.5064481000299565,standard,3,33,A
14,9,switch/standard,j,f,A,17,113,-5.541832691,31.07890857909637,j,0.46010490000480786,standard,3,34,A
14,19,switch/standard,j,f,Test,33,113,26.34861461926153,27.630709460791525,j,0.3350907000130974,standard,3,35,A
14,7,switch/standard,j,f,Test,17,57,-6.953638003,-14.02238557,f,0.4722940999781713,standard,3,36,B
14,1,switch/standard,j,f,Test,10,30,-20.84275308,-36.88849953,f,0.4659285999950953,standard,3,37,B
14,13,switch/standard,j,f,Test,25,85,9.818056926810664,7.222251006984481,f,1.7191721000126563,standard,3,38,B
14,10,switch/standard,j,f,A,17,140,-1.732665378,46.70107673091564,j,0.527008900011424,standard,3,39,A
14,7,switch/standard,j,f,Test,17,57,-6.953638003,-14.02238557,f,1.1521329000242986,standard,3,40,B
14,19,switch/standard,j,f,Test,33,113,26.34861461926153,27.630709460791525,j,1.125497600005474,switch,3,41,A
14,2,switch/standard,j,f,A,10,57,-24.53495333,-12.0763604,j,1.831076900009066,standard,3,42,A
14,24,switch/standard,j,f,B,40,113,37.71162000489743,24.31290640287821,j,1.1801491000223905,switch,3,43,A
14,19,switch/standard,j,f,Test,33,113,26.34861461926153,27.630709460791525,j,1.1057870999793522,standard,3,44,A
14,22,switch/standard,j,f,B,40,57,41.88083319458841,-14.98800492,f,0.5707667999668047,standard,3,45,B
14,13,switch/standard,j,f,Test,25,85,9.818056926810664,7.222251006984481,f,1.7534948999527842,switch,3,46,B
14,8,switch/standard,j,f,A,17,85,-8.995342757,8.387433417892344,j,0.8876170000294223,standard,3,47,A
14,20,switch/standard,j,f,A,33,140,26.14711175410772,43.96860584938808,j,1.6971774999983609,switch,3,48,A
14,1,switch/standard,j,f,Test,10,30,-20.84275308,-36.88849953,f,0.6631941999658011,standard,3,49,B
14,3,switch/standard,j,f,A,10,85,-26.47077232,11.92758930596587,j,0.7356560999760404,standard,3,50,A
14,4,switch/standard,j,f,A,10,113,-23.83479794,30.479004461502832,j,0.6390144000179134,standard,3,51,A
14,21,switch/standard,j,f,B,40,30,45.13982813678688,-35.30081098,f,1.2186226000194438,switch,3,52,B
14,13,switch/standard,j,f,Test,25,85,9.818056926810664,7.222251006984481,j,0.9437479000189342,standard,3,53,A
14,12,switch/standard,j,f,B,25,57,9.177647168036223,-16.07892918,f,1.6389865000382997,standard,3,54,B
14,25,switch/standard,j,f,Test,40,140,38.35549087886737,42.56620206713007,j,0.9066210000310092,standard,3,55,A
15,19,standard/switch,f,j,Test,33,113,26.34861461926153,27.630709460791525,f,3.056162699998822,standard,1,1,A
15,1,standard/switch,f,j,Test,10,30,-20.84275308,-36.88849953,j,1.058501600055024,standard,1,2,B
15,7,standard/switch,f,j,Test,17,57,-6.953638003,-14.02238557,f,3.7663989000138822,switch,1,3,A
15,13,standard/switch,f,j,Test,25,85,9.818056926810664,7.222251006984481,f,5.19498620001832,standard,1,4,A
15,25,standard/switch,f,j,Test,40,140,38.35549087886737,42.56620206713007,f,1.3889316000277176,standard,1,5,A
15,8,standard/switch,f,j,A,17,85,-8.995342757,8.387433417892344,j,2.22688139998354,standard,1,6,B
15,7,standard/switch,f,j,Test,17,57,-6.953638003,-14.02238557,j,0.9198257999960332,standard,1,7,B
15,7,standard/switch,f,j,Test,17,57,-6.953638003,-14.02238557,j,0.6953712000395171,standard,1,8,B
15,22,standard/switch,f,j,B,40,57,41.88083319458841,-14.98800492,j,0.7533457999816164,standard,1,9,B
15,9,standard/switch,f,j,A,17,113,-5.541832691,31.07890857909637,f,0.8647695999825373,standard,1,10,A
15,1,standard/switch,f,j,Test,10,30,-20.84275308,-36.88849953,f,1.365101900009904,switch,1,11,A
15,20,standard/switch,f,j,A,33,140,26.14711175410772,43.96860584938808,f,13.339365799969528,standard,1,12,A
15,21,standard/switch,f,j,B,40,30,45.13982813678688,-35.30081098,f,3.6193538999650623,switch,1,13,A
15,25,standard/switch,f,j,Test,40,140,38.35549087886737,42.56620206713007,f,2.526282100006938,standard,1,14,A
15,1,standard/switch,f,j,Test,10,30,-20.84275308,-36.88849953,j,1.197964499995578,standard,1,15,B
15,25,standard/switch,f,j,Test,40,140,38.35549087886737,42.56620206713007,j,1.5151119000511244,switch,1,16,B
15,2,standard/switch,f,j,A,10,57,-24.53495333,-12.0763604,j,1.523940799990669,standard,1,17,B
15,24,standard/switch,f,j,B,40,113,37.71162000489743,24.31290640287821,j,1.2759316000156105,switch,1,18,B
15,16,standard/switch,f,j,B,33,30,30.19684495481618,-38.42373928,j,1.0231966999708677,standard,1,19,B
15,18,standard/switch,f,j,B,33,85,26.821232143487904,6.976824754974014,j,15.547554399992803,standard,1,20,B
15,15,standard/switch,f,j,A,25,140,12.129448921922751,51.77476957,f,0.807851399993524,standard,1,21,A
15,19,standard/switch,f,j,Test,33,113,26.34861461926153,27.630709460791525,f,1.3409986000042409,standard,1,22,A
15,6,standard/switch,f,j,B,17,30,-3.854444584,-37.8392214,j,0.6371648999629542,standard,1,23,B
15,13,standard/switch,f,j,Test,25,85,9.818056926810664,7.222251006984481,j,1.8174056999851016,standard,1,24,B
15,13,standard/switch,f,j,Test,25,85,9.818056926810664,7.222251006984481,f,3.198435799975414,switch,1,25,A
15,7,standard/switch,f,j,Test,17,57,-6.953638003,-14.02238557,j,0.8580852000159211,standard,1,26,B
15,17,standard/switch,f,j,B,33,57,26.21866752665977,-14.79865055,f,1.4694487999659032,switch,1,27,A
15,14,standard/switch,f,j,A,25,113,8.045214428,27.52140038259675,f,0.7996545000351034,standard,1,28,A
15,1,standard/switch,f,j,Test,10,30,-20.84275308,-36.88849953,j,0.95801709999796,standard,1,29,B
15,20,standard/switch,f,j,A,33,140,26.14711175410772,43.96860584938808,j,1.6524326999788173,switch,1,30,B
15,5,standard/switch,f,j,A,10,140,-16.71390068,50.111230393533226,f,1.4394970000139438,standard,1,31,A
15,17,standard/switch,f,j,B,33,57,26.21866752665977,-14.79865055,j,1.9397195000201464,standard,1,32,B
15,5,standard/switch,f,j,A,10,140,-16.71390068,50.111230393533226,j,6.706166899995878,switch,1,33,B
15,21,standard/switch,f,j,B,40,30,45.13982813678688,-35.30081098,j,0.7675258999806829,standard,1,34,B
15,10,standard/switch,f,j,A,17,140,-1.732665378,46.70107673091564,j,1.1679206999833696,switch,1,35,B
15,13,standard/switch,f,j,Test,25,85,9.818056926810664,7.222251006984481,j,0.7266094000078738,standard,1,36,B
15,19,standard/switch,f,j,Test,33,113,26.34861461926153,27.630709460791525,j,5.063161100028083,switch,1,37,B
15,25,standard/switch,f,j,Test,40,140,38.35549087886737,42.56620206713007,f,3.4373866000096314,standard,1,38,A
15,16,standard/switch,f,j,B,33,30,30.19684495481618,-38.42373928,f,1.4574162000208162,switch,1,39,A
15,10,standard/switch,f,j,A,17,140,-1.732665378,46.70107673091564,f,9.548681299958844,standard,1,40,A
15,12,standard/switch,f,j,B,25,57,9.177647168036223,-16.07892918,j,0.6860422000172548,standard,1,41,B
15,7,standard/switch,f,j,Test,17,57,-6.953638003,-14.02238557,j,0.6406136000296101,standard,1,42,B
15,13,standard/switch,f,j,Test,25,85,9.818056926810664,7.222251006984481,j,1.06026469997596,standard,1,43,B
15,23,standard/switch,f,j,B,40,85,38.21996555398914,5.057706707981728,j,0.7749284000019543,standard,1,44,B
15,2,standard/switch,f,j,A,10,57,-24.53495333,-12.0763604,f,1.166279400000349,switch,1,45,A
15,11,standard/switch,f,j,B,25,30,13.264524555129096,-38.2203846,j,1.245845899975393,standard,1,46,B
15,19,standard/switch,f,j,Test,33,113,26.34861461926153,27.630709460791525,f,2.953330999996979,standard,1,47,A
15,6,standard/switch,f,j,B,17,30,-3.854444584,-37.8392214,f,1.1669380000093952,switch,1,48,A
15,25,standard/switch,f,j,Test,40,140,38.35549087886737,42.56620206713007,f,5.142161499999929,standard,1,49,A
15,15,standard/switch,f,j,A,25,140,12.129448921922751,51.77476957,j,1.115476100007072,switch,1,50,B
15,3,standard/switch,f,j,A,10,85,-26.47077232,11.92758930596587,f,4.140267200011294,standard,1,51,A
15,1,standard/switch,f,j,Test,10,30,-20.84275308,-36.88849953,j,0.6741177999647334,standard,1,52,B
15,19,standard/switch,f,j,Test,33,113,26.34861461926153,27.630709460791525,f,1.3969794000149705,standard,1,53,A
15,4,standard/switch,f,j,A,10,113,-23.83479794,30.479004461502832,f,1.730065800016746,standard,1,54,A
15,24,standard/switch,f,j,B,40,113,37.71162000489743,24.31290640287821,j,3.0899549999739975,standard,1,55,B
15,16,standard/switch,f,j,B,33,30,30.19684495481618,-38.42373928,j,1.821327400044538,standard,2,1,B
15,19,standard/switch,f,j,Test,33,113,26.34861461926153,27.630709460791525,j,2.905031299975235,switch,2,2,B
15,8,standard/switch,f,j,A,17,85,-8.995342757,8.387433417892344,f,1.7519508000114,standard,2,3,A
15,20,standard/switch,f,j,A,33,140,26.14711175410772,43.96860584938808,j,1.5750376000069082,switch,2,4,B
15,19,standard/switch,f,j,Test,33,113,26.34861461926153,27.630709460791525,f,18.43826120003359,standard,2,5,A
15,11,standard/switch,f,j,B,25,30,13.264524555129096,-38.2203846,j,0.6128415000275709,standard,2,6,B
15,1,standard/switch,f,j,Test,10,30,-20.84275308,-36.88849953,j,0.658947599993553,standard,2,7,B
15,17,standard/switch,f,j,B,33,57,26.21866752665977,-14.79865055,f,0.8779400999774225,switch,2,8,A
15,3,standard/switch,f,j,A,10,85,-26.47077232,11.92758930596587,f,1.1444188000168651,standard,2,9,A
15,10,standard/switch,f,j,A,17,140,-1.732665378,46.70107673091564,f,2.1924456999986432,standard,2,10,A
15,7,standard/switch,f,j,Test,17,57,-6.953638003,-14.02238557,j,0.7177822000230663,standard,2,11,B
15,25,standard/switch,f,j,Test,40,140,38.35549087886737,42.56620206713007,f,1.0541527000023052,standard,2,12,A
15,25,standard/switch,f,j,Test,40,140,38.35549087886737,42.56620206713007,f,0.7223937000380829,standard,2,13,A
15,13,standard/switch,f,j,Test,25,85,9.818056926810664,7.222251006984481,j,0.8112337000202388,standard,2,14,B
15,1,standard/switch,f,j,Test,10,30,-20.84275308,-36.88849953,f,0.7846467000199482,switch,2,15,A
15,19,standard/switch,f,j,Test,33,113,26.34861461926153,27.630709460791525,f,1.134748500015121,standard,2,16,A
15,7,standard/switch,f,j,Test,17,57,-6.953638003,-14.02238557,j,0.6856148000224493,standard,2,17,B
15,6,standard/switch,f,j,B,17,30,-3.854444584,-37.8392214,f,0.8884173999540508,switch,2,18,A
15,13,standard/switch,f,j,Test,25,85,9.818056926810664,7.222251006984481,j,2.4668383999960497,standard,2,19,B
15,2,standard/switch,f,j,A,10,57,-24.53495333,-12.0763604,f,1.1095755000133067,switch,2,20,A
15,1,standard/switch,f,j,Test,10,30,-20.84275308,-36.88849953,j,0.9825516999699176,standard,2,21,B
15,14,standard/switch,f,j,A,25,113,8.045214428,27.52140038259675,f,1.2767843999899924,standard,2,22,A
15,24,standard/switch,f,j,B,40,113,37.71162000489743,24.31290640287821,f,1.77507269999478,standard,2,23,A
15,16,standard/switch,f,j,B,33,30,30.19684495481618,-38.42373928,f,1.4931978999520652,switch,2,24,A
15,23,standard/switch,f,j,B,40,85,38.21996555398914,5.057706707981728,f,4.918473700003233,standard,2,25,A
15,25,standard/switch,f,j,Test,40,140,38.35549087886737,42.56620206713007,j,1.7883414999814704,switch,2,26,B
15,7,standard/switch,f,j,Test,17,57,-6.953638003,-14.02238557,j,2.34588390000863,standard,2,27,B
15,15,standard/switch,f,j,A,25,140,12.129448921922751,51.77476957,f,1.5778043000027535,standard,2,28,A
15,1,standard/switch,f,j,Test,10,30,-20.84275308,-36.88849953,j,0.5674248000141233,standard,2,29,B
15,7,standard/switch,f,j,Test,17,57,-6.953638003,-14.02238557,f,1.694939200009685,switch,2,30,A
15,22,standard/switch,f,j,B,40,57,41.88083319458841,-14.98800492,j,0.920005499967374,standard,2,31,B
15,1,standard/switch,f,j,Test,10,30,-20.84275308,-36.88849953,j,0.672598899982404,standard,2,32,B
15,5,standard/switch,f,j,A,10,140,-16.71390068,50.111230393533226,j,1.8035918999812568,switch,2,33,B
15,6,standard/switch,f,j,B,17,30,-3.854444584,-37.8392214,j,4.048895200015977,standard,2,34,B
15,20,standard/switch,f,j,A,33,140,26.14711175410772,43.96860584938808,f,7.690546899975743,standard,2,35,A
15,24,standard/switch,f,j,B,40,113,37.71162000489743,24.31290640287821,j,0.9187950000050478,switch,2,36,B
15,25,standard/switch,f,j,Test,40,140,38.35549087886737,42.56620206713007,f,1.0153682999662124,standard,2,37,A
15,10,standard/switch,f,j,A,17,140,-1.732665378,46.70107673091564,j,1.0441996000008658,switch,2,38,B
15,17,standard/switch,f,j,B,33,57,26.21866752665977,-14.79865055,j,1.232763400010299,standard,2,39,B
15,19,standard/switch,f,j,Test,33,113,26.34861461926153,27.630709460791525,f,0.8690163999563083,standard,2,40,A
15,21,standard/switch,f,j,B,40,30,45.13982813678688,-35.30081098,f,1.1283383999834768,switch,2,41,A
15,5,standard/switch,f,j,A,10,140,-16.71390068,50.111230393533226,f,1.072369500005152,standard,2,42,A
15,13,standard/switch,f,j,Test,25,85,9.818056926810664,7.222251006984481,j,3.9071894999942742,standard,2,43,B
15,21,standard/switch,f,j,B,40,30,45.13982813678688,-35.30081098,j,0.7379690000088885,standard,2,44,B
15,2,standard/switch,f,j,A,10,57,-24.53495333,-12.0763604,j,2.338726400048472,standard,2,45,B
15,7,standard/switch,f,j,Test,17,57,-6.953638003,-14.02238557,j,0.7933944999822415,standard,2,46,B
15,13,standard/switch,f,j,Test,25,85,9.818056926810664,7.222251006984481,j,4.183828899986111,standard,2,47,B
15,12,standard/switch,f,j,B,25,57,9.177647168036223,-16.07892918,j,2.276090999948792,standard,2,48,B
15,9,standard/switch,f,j,A,17,113,-5.541832691,31.07890857909637,f,0.9096009000204504,standard,2,49,A
15,13,standard/switch,f,j,Test,25,85,9.818056926810664,7.222251006984481,f,1.558353900036309,switch,2,50,A
15,25,standard/switch,f,j,Test,40,140,38.35549087886737,42.56620206713007,f,1.629658300022129,standard,2,51,A
15,19,standard/switch,f,j,Test,33,113,26.34861461926153,27.630709460791525,f,0.6420444999821484,standard,2,52,A
15,15,standard/switch,f,j,A,25,140,12.129448921922751,51.77476957,j,1.8140894999960435,switch,2,53,B
15,18,standard/switch,f,j,B,33,85,26.821232143487904,6.976824754974014,f,1.506304699985776,standard,2,54,A
15,4,standard/switch,f,j,A,10,113,-23.83479794,30.479004461502832,f,1.1790416999720037,standard,2,55,A
15,6,standard/switch,f,j,B,17,30,-3.854444584,-37.8392214,j,0.7586960000335239,standard,3,1,B
15,2,standard/switch,f,j,A,10,57,-24.53495333,-12.0763604,f,1.1816940000280738,switch,3,2,A
15,19,standard/switch,f,j,Test,33,113,26.34861461926153,27.630709460791525,f,3.5082261000061408,standard,3,3,A
15,5,standard/switch,f,j,A,10,140,-16.71390068,50.111230393533226,f,0.6593590999837033,standard,3,4,A
15,19,standard/switch,f,j,Test,33,113,26.34861461926153,27.630709460791525,j,1.7905260999687016,switch,3,5,B
15,13,standard/switch,f,j,Test,25,85,9.818056926810664,7.222251006984481,j,3.3645544999744743,standard,3,6,B
15,1,standard/switch,f,j,Test,10,30,-20.84275308,-36.88849953,j,0.94698690000223,standard,3,7,B
15,7,standard/switch,f,j,Test,17,57,-6.953638003,-14.02238557,j,0.4987902999855578,standard,3,8,B
15,12,standard/switch,f,j,B,25,57,9.177647168036223,-16.07892918,j,0.9808565999846904,standard,3,9,B
15,18,standard/switch,f,j,B,33,85,26.821232143487904,6.976824754974014,j,9.250965199957136,standard,3,10,B
15,25,standard/switch,f,j,Test,40,140,38.35549087886737,42.56620206713007,j,4.376424300018698,switch,3,11,B
15,7,standard/switch,f,j,Test,17,57,-6.953638003,-14.02238557,j,0.7651660999981686,standard,3,12,B
15,25,standard/switch,f,j,Test,40,140,38.35549087886737,42.56620206713007,f,1.1720334999845363,standard,3,13,A
15,13,standard/switch,f,j,Test,25,85,9.818056926810664,7.222251006984481,j,1.3630609000101686,standard,3,14,B
15,5,standard/switch,f,j,A,10,140,-16.71390068,50.111230393533226,j,1.1059567999909632,switch,3,15,B
15,7,standard/switch,f,j,Test,17,57,-6.953638003,-14.02238557,j,0.6829618999618106,standard,3,16,B
15,1,standard/switch,f,j,Test,10,30,-20.84275308,-36.88849953,f,1.3188391999574378,switch,3,17,A
15,10,standard/switch,f,j,A,17,140,-1.732665378,46.70107673091564,f,1.1978709999821149,standard,3,18,A
15,21,standard/switch,f,j,B,40,30,45.13982813678688,-35.30081098,f,4.78778610000154,switch,3,19,A
15,22,standard/switch,f,j,B,40,57,41.88083319458841,-14.98800492,j,0.9514975000056438,standard,3,20,B
15,24,standard/switch,f,j,B,40,113,37.71162000489743,24.31290640287821,f,1.0689240000210702,switch,3,21,A
15,19,standard/switch,f,j,Test,33,113,26.34861461926153,27.630709460791525,f,1.1190938000218011,standard,3,22,A
15,7,standard/switch,f,j,Test,17,57,-6.953638003,-14.02238557,f,2.4335460999864154,switch,3,23,A
15,14,standard/switch,f,j,A,25,113,8.045214428,27.52140038259675,f,2.5566656999872066,standard,3,24,A
15,11,standard/switch,f,j,B,25,30,13.264524555129096,-38.2203846,j,0.8351153000257909,standard,3,25,B
15,9,standard/switch,f,j,A,17,113,-5.541832691,31.07890857909637,f,2.0384199000545777,standard,3,26,A
15,20,standard/switch,f,j,A,33,140,26.14711175410772,43.96860584938808,j,0.9613196999998764,switch,3,27,B
15,16,standard/switch,f,j,B,33,30,30.19684495481618,-38.42373928,j,0.8341834000311792,standard,3,28,B
15,25,standard/switch,f,j,Test,40,140,38.35549087886737,42.56620206713007,f,0.7265031000133604,standard,3,29,A
15,24,standard/switch,f,j,B,40,113,37.71162000489743,24.31290640287821,f,1.9909825999638997,standard,3,30,A
15,13,standard/switch,f,j,Test,25,85,9.818056926810664,7.222251006984481,j,1.755536500015296,standard,3,31,B
15,23,standard/switch,f,j,B,40,85,38.21996555398914,5.057706707981728,f,0.8748869000119157,standard,3,32,A
15,16,standard/switch,f,j,B,33,30,30.19684495481618,-38.42373928,f,0.9821931999758816,switch,3,33,A
