participant,stim,condition,category_A_label,category_B_label,category,angle,radius,angle_psy,radius_psy,key_choice,rt,trial_type,block_n,trial_n,category_choice
10,6,switch/standard,j,f,B,17,30,-3.854444584,-37.8392214,f,3.621447600016836,standard,1,1,B
10,7,switch/standard,j,f,Test,17,57,-6.953638003,-14.02238557,f,2.489814699976705,standard,1,2,B
10,13,switch/standard,j,f,Test,25,85,9.818056926810664,7.222251006984481,f,2.2517099999822676,standard,1,3,B
10,19,switch/standard,j,f,Test,33,113,26.34861461926153,27.630709460791525,f,1.212764700001571,standard,1,4,B
10,24,switch/standard,j,f,B,40,113,37.71162000489743,24.31290640287821,f,1.0504995000083,switch,1,5,B
10,1,switch/standard,j,f,Test,10,30,-20.84275308,-36.88849953,f,2.5184865000192076,standard,1,6,B
10,25,switch/standard,j,f,Test,40,140,38.35549087886737,42.56620206713007,j,0.9346410999423824,standard,1,7,A
10,6,switch/standard,j,f,B,17,30,-3.854444584,-37.8392214,f,0.7674722999799997,switch,1,8,B
10,7,switch/standard,j,f,Test,17,57,-6.953638003,-14.02238557,f,0.5579218999482691,standard,1,9,B
10,7,switch/standard,j,f,Test,17,57,-6.953638003,-14.02238557,f,0.5500466999947093,switch,1,10,B
10,13,switch/standard,j,f,Test,25,85,9.818056926810664,7.222251006984481,j,1.3741487999795936,standard,1,11,A
10,7,switch/standard,j,f,Test,17,57,-6.953638003,-14.02238557,j,0.635985900007654,standard,1,12,A
10,19,switch/standard,j,f,Test,33,113,26.34861461926153,27.630709460791525,j,1.0808332999586128,standard,1,13,A
10,25,switch/standard,j,f,Test,40,140,38.35549087886737,42.56620206713007,j,0.970792399952188,standard,1,14,A
10,20,switch/standard,j,f,A,33,140,26.14711175410772,43.96860584938808,j,0.5212200999958441,switch,1,15,A
10,16,switch/standard,j,f,B,33,30,30.19684495481618,-38.42373928,f,0.7065544000361115,standard,1,16,B
10,1,switch/standard,j,f,Test,10,30,-20.84275308,-36.88849953,f,2.2359427000046708,standard,1,17,B
10,20,switch/standard,j,f,A,33,140,26.14711175410772,43.96860584938808,j,0.7910142000182532,standard,1,18,A
10,25,switch/standard,j,f,Test,40,140,38.35549087886737,42.56620206713007,j,0.4449504000367597,standard,1,19,A
10,22,switch/standard,j,f,B,40,57,41.88083319458841,-14.98800492,f,0.6415582000045106,standard,1,20,B
10,19,switch/standard,j,f,Test,33,113,26.34861461926153,27.630709460791525,j,0.9814650000189432,standard,1,21,A
10,19,switch/standard,j,f,Test,33,113,26.34861461926153,27.630709460791525,f,0.9085734999971464,standard,1,22,B
10,25,switch/standard,j,f,Test,40,140,38.35549087886737,42.56620206713007,j,1.1092394000152126,switch,1,23,A
10,4,switch/standard,j,f,A,10,113,-23.83479794,30.479004461502832,j,1.151579800003674,standard,1,24,A
10,15,switch/standard,j,f,A,25,140,12.129448921922751,51.77476957,j,0.4539469000301324,standard,1,25,A
10,21,switch/standard,j,f,B,40,30,45.13982813678688,-35.30081098,f,0.6425301000126638,switch,1,26,B
10,2,switch/standard,j,f,A,10,57,-24.53495333,-12.0763604,j,0.5587129999767058,standard,1,27,A
10,25,switch/standard,j,f,Test,40,140,38.35549087886737,42.56620206713007,j,0.813458799966611,standard,1,28,A
10,24,switch/standard,j,f,B,40,113,37.71162000489743,24.31290640287821,j,1.4585607000044547,standard,1,29,A
10,10,switch/standard,j,f,A,17,140,-1.732665378,46.70107673091564,j,0.6941496999934316,standard,1,30,A
10,21,switch/standard,j,f,B,40,30,45.13982813678688,-35.30081098,f,0.6563063000212424,standard,1,31,B
10,5,switch/standard,j,f,A,10,140,-16.71390068,50.111230393533226,j,0.7084169000154361,standard,1,32,A
10,3,switch/standard,j,f,A,10,85,-26.47077232,11.92758930596587,j,0.7177789999986999,standard,1,33,A
10,19,switch/standard,j,f,Test,33,113,26.34861461926153,27.630709460791525,j,2.5814058000105433,switch,1,34,A
10,7,switch/standard,j,f,Test,17,57,-6.953638003,-14.02238557,j,0.6111813000170514,standard,1,35,A
10,15,switch/standard,j,f,A,25,140,12.129448921922751,51.77476957,j,0.6410290999920107,switch,1,36,A
10,23,switch/standard,j,f,B,40,85,38.21996555398914,5.057706707981728,f,1.4775354999583217,standard,1,37,B
10,13,switch/standard,j,f,Test,25,85,9.818056926810664,7.222251006984481,j,0.8470326000242494,standard,1,38,A
10,9,switch/standard,j,f,A,17,113,-5.541832691,31.07890857909637,j,0.6039077999885194,standard,1,39,A
10,16,switch/standard,j,f,B,33,30,30.19684495481618,-38.42373928,f,0.6417763000354171,switch,1,40,B
10,12,switch/standard,j,f,B,25,57,9.177647168036223,-16.07892918,j,0.8363282000063919,standard,1,41,A
10,1,switch/standard,j,f,Test,10,30,-20.84275308,-36.88849953,j,0.5772786000161432,standard,1,42,A
10,2,switch/standard,j,f,A,10,57,-24.53495333,-12.0763604,j,0.5367479000124149,switch,1,43,A
10,17,switch/standard,j,f,B,33,57,26.21866752665977,-14.79865055,f,0.7042863999959081,standard,1,44,B
10,1,switch/standard,j,f,Test,10,30,-20.84275308,-36.88849953,j,0.6346268999623135,switch,1,45,A
10,8,switch/standard,j,f,A,17,85,-8.995342757,8.387433417892344,j,0.7900052000186406,standard,1,46,A
10,13,switch/standard,j,f,Test,25,85,9.818056926810664,7.222251006984481,j,0.5882405000156723,switch,1,47,A
10,1,switch/standard,j,f,Test,10,30,-20.84275308,-36.88849953,j,0.5868628999451175,standard,1,48,A
10,5,switch/standard,j,f,A,10,140,-16.71390068,50.111230393533226,j,1.072112699970603,switch,1,49,A
10,18,switch/standard,j,f,B,33,85,26.821232143487904,6.976824754974014,j,1.0673558000125922,standard,1,50,A
10,10,switch/standard,j,f,A,17,140,-1.732665378,46.70107673091564,j,0.7985152999754064,switch,1,51,A
10,13,switch/standard,j,f,Test,25,85,9.818056926810664,7.222251006984481,f,0.9806486000306904,standard,1,52,B
10,14,switch/standard,j,f,A,25,113,8.045214428,27.52140038259675,j,1.1792057999991812,standard,1,53,A
10,11,switch/standard,j,f,B,25,30,13.264524555129096,-38.2203846,f,1.121287099958863,standard,1,54,B
10,17,switch/standard,j,f,B,33,57,26.21866752665977,-14.79865055,f,0.5699925000080839,switch,1,55,B
10,5,switch/standard,j,f,A,10,140,-16.71390068,50.111230393533226,j,0.637488599983044,standard,2,1,A
10,24,switch/standard,j,f,B,40,113,37.71162000489743,24.31290640287821,f,2.338452900003176,switch,2,2,B
10,16,switch/standard,j,f,B,33,30,30.19684495481618,-38.42373928,f,0.6821900999639183,standard,2,3,B
10,14,switch/standard,j,f,A,25,113,8.045214428,27.52140038259675,j,0.5884082000120543,standard,2,4,A
10,13,switch/standard,j,f,Test,25,85,9.818056926810664,7.222251006984481,f,1.5478956999722868,switch,2,5,B
10,13,switch/standard,j,f,Test,25,85,9.818056926810664,7.222251006984481,f,0.8345134999835864,standard,2,6,B
10,1,switch/standard,j,f,Test,10,30,-20.84275308,-36.88849953,j,0.6953766000224277,standard,2,7,A
10,25,switch/standard,j,f,Test,40,140,38.35549087886737,42.56620206713007,j,1.2485138999763876,standard,2,8,A
10,18,switch/standard,j,f,B,33,85,26.821232143487904,6.976824754974014,f,0.9247702000429854,standard,2,9,B
10,15,switch/standard,j,f,A,25,140,12.129448921922751,51.77476957,j,0.8300951000419445,switch,2,10,A
10,1,switch/standard,j,f,Test,10,30,-20.84275308,-36.88849953,j,0.8341113000060432,standard,2,11,A
10,10,switch/standard,j,f,A,17,140,-1.732665378,46.70107673091564,j,1.3507964999880642,switch,2,12,A
10,13,switch/standard,j,f,Test,25,85,9.818056926810664,7.222251006984481,f,1.5347441000049002,standard,2,13,B
10,19,switch/standard,j,f,Test,33,113,26.34861461926153,27.630709460791525,f,0.9510134999873116,standard,2,14,B
10,19,switch/standard,j,f,Test,33,113,26.34861461926153,27.630709460791525,j,0.9825449000345544,standard,2,15,A
10,24,switch/standard,j,f,B,40,113,37.71162000489743,24.31290640287821,j,0.7090027999947779,standard,2,16,A
10,13,switch/standard,j,f,Test,25,85,9.818056926810664,7.222251006984481,j,1.2790246999938972,standard,2,17,A
10,7,switch/standard,j,f,Test,17,57,-6.953638003,-14.02238557,j,0.41747380001470447,switch,2,18,A
10,7,switch/standard,j,f,Test,17,57,-6.953638003,-14.02238557,f,1.0713317000190727,standard,2,19,B
10,25,switch/standard,j,f,Test,40,140,38.35549087886737,42.56620206713007,j,1.6817323999712244,switch,2,20,A
10,17,switch/standard,j,f,B,33,57,26.21866752665977,-14.79865055,f,0.8519722999772057,standard,2,21,B
10,5,switch/standard,j,f,A,10,140,-16.71390068,50.111230393533226,j,0.6948243000078946,switch,2,22,A
10,6,switch/standard,j,f,B,17,30,-3.854444584,-37.8392214,f,1.8653132999897937,standard,2,23,B
10,6,switch/standard,j,f,B,17,30,-3.854444584,-37.8392214,f,0.8275939000304788,switch,2,24,B
10,10,switch/standard,j,f,A,17,140,-1.732665378,46.70107673091564,j,0.6888286999892443,standard,2,25,A
10,13,switch/standard,j,f,Test,25,85,9.818056926810664,7.222251006984481,j,0.6591958000208251,standard,2,26,A
10,1,switch/standard,j,f,Test,10,30,-20.84275308,-36.88849953,j,1.734701599983964,standard,2,27,A
10,7,switch/standard,j,f,Test,17,57,-6.953638003,-14.02238557,f,1.166510000010021,standard,2,28,B
10,12,switch/standard,j,f,B,25,57,9.177647168036223,-16.07892918,f,0.541677700006403,standard,2,29,B
10,17,switch/standard,j,f,B,33,57,26.21866752665977,-14.79865055,f,0.5659179999493062,switch,2,30,B
10,7,switch/standard,j,f,Test,17,57,-6.953638003,-14.02238557,j,0.7180022000102326,standard,2,31,A
10,16,switch/standard,j,f,B,33,30,30.19684495481618,-38.42373928,f,0.7903761999914423,switch,2,32,B
10,15,switch/standard,j,f,A,25,140,12.129448921922751,51.77476957,j,0.7648024999652989,standard,2,33,A
10,9,switch/standard,j,f,A,17,113,-5.541832691,31.07890857909637,j,0.6033935000305064,standard,2,34,A
10,19,switch/standard,j,f,Test,33,113,26.34861461926153,27.630709460791525,j,0.9447616999968886,standard,2,35,A
10,3,switch/standard,j,f,A,10,85,-26.47077232,11.92758930596587,f,0.2653287000139244,standard,2,36,B
10,23,switch/standard,j,f,B,40,85,38.21996555398914,5.057706707981728,f,0.6534219000022858,standard,2,37,B
10,8,switch/standard,j,f,A,17,85,-8.995342757,8.387433417892344,j,0.4337832999881357,standard,2,38,A
10,1,switch/standard,j,f,Test,10,30,-20.84275308,-36.88849953,j,0.6298988999915309,switch,2,39,A
10,25,switch/standard,j,f,Test,40,140,38.35549087886737,42.56620206713007,f,0.5632650999468751,standard,2,40,B
10,20,switch/standard,j,f,A,33,140,26.14711175410772,43.96860584938808,j,0.5377585000242107,switch,2,41,A
10,1,switch/standard,j,f,Test,10,30,-20.84275308,-36.88849953,f,4.9463308999547735,standard,2,42,B
10,2,switch/standard,j,f,A,10,57,-24.53495333,-12.0763604,j,0.7915044000255875,switch,2,43,A
10,20,switch/standard,j,f,A,33,140,26.14711175410772,43.96860584938808,j,0.7890621999977157,standard,2,44,A
10,11,switch/standard,j,f,B,25,30,13.264524555129096,-38.2203846,f,0.7641885000048205,standard,2,45,B
10,21,switch/standard,j,f,B,40,30,45.13982813678688,-35.30081098,f,0.692016799992416,switch,2,46,B
10,21,switch/standard,j,f,B,40,30,45.13982813678688,-35.30081098,f,1.358104499988258,standard,2,47,B
10,4,switch/standard,j,f,A,10,113,-23.83479794,30.479004461502832,j,0.6853286999976262,standard,2,48,A
10,7,switch/standard,j,f,Test,17,57,-6.953638003,-14.02238557,j,0.7181050999788567,standard,2,49,A
10,25,switch/standard,j,f,Test,40,140,38.35549087886737,42.56620206713007,f,0.5196465000044554,standard,2,50,B
10,2,switch/standard,j,f,A,10,57,-24.53495333,-12.0763604,j,0.8642792999744415,standard,2,51,A
10,25,switch/standard,j,f,Test,40,140,38.35549087886737,42.56620206713007,j,0.9640098999952896,standard,2,52,A
10,19,switch/standard,j,f,Test,33,113,26.34861461926153,27.630709460791525,j,0.55565779999597,switch,2,53,A
10,19,switch/standard,j,f,Test,33,113,26.34861461926153,27.630709460791525,j,0.4902288999874145,standard,2,54,A
10,22,switch/standard,j,f,B,40,57,41.88083319458841,-14.98800492,j,0.3886017000186257,standard,2,55,A
10,13,switch/standard,j,f,Test,25,85,9.818056926810664,7.222251006984481,j,0.7818098000134341,standard,3,1,A
10,1,switch/standard,j,f,Test,10,30,-20.84275308,-36.88849953,j,0.5247892000479624,standard,3,2,A
10,25,switch/standard,j,f,Test,40,140,38.35549087886737,42.56620206713007,j,1.022041000018362,standard,3,3,A
10,20,switch/standard,j,f,A,33,140,26.14711175410772,43.96860584938808,j,0.6907283999607898,standard,3,4,A
10,14,switch/standard,j,f,A,25,113,8.045214428,27.52140038259675,j,0.5087751999963075,standard,3,5,A
10,24,switch/standard,j,f,B,40,113,37.71162000489743,24.31290640287821,f,0.7253795000142418,standard,3,6,B
10,10,switch/standard,j,f,A,17,140,-1.732665378,46.70107673091564,j,0.6540070000337437,standard,3,7,A
10,1,switch/standard,j,f,Test,10,30,-20.84275308,-36.88849953,j,0.6745455000200309,standard,3,8,A
10,18,switch/standard,j,f,B,33,85,26.821232143487904,6.976824754974014,f,1.1893538999720477,standard,3,9,B
10,6,switch/standard,j,f,B,17,30,-3.854444584,-37.8392214,j,0.5871113000321202,switch,3,10,A
10,7,switch/standard,j,f,Test,17,57,-6.953638003,-14.02238557,j,0.7855509999790229,standard,3,11,A
10,10,switch/standard,j,f,A,17,140,-1.732665378,46.70107673091564,j,0.7271028000395745,switch,3,12,A
10,25,switch/standard,j,f,Test,40,140,38.35549087886737,42.56620206713007,j,1.040787999983877,standard,3,13,A
10,5,switch/standard,j,f,A,10,140,-16.71390068,50.111230393533226,j,0.5878017999930307,switch,3,14,A
10,23,switch/standard,j,f,B,40,85,38.21996555398914,5.057706707981728,f,0.7219938000198454,standard,3,15,B
10,20,switch/standard,j,f,A,33,140,26.14711175410772,43.96860584938808,j,0.7394903000094928,switch,3,16,A
10,19,switch/standard,j,f,Test,33,113,26.34861461926153,27.630709460791525,j,0.47521529998630285,standard,3,17,A
10,19,switch/standard,j,f,Test,33,113,26.34861461926153,27.630709460791525,j,0.7669008999946527,standard,3,18,A
10,17,switch/standard,j,f,B,33,57,26.21866752665977,-14.79865055,f,2.0856406000093557,switch,3,19,B
10,16,switch/standard,j,f,B,33,30,30.19684495481618,-38.42373928,f,0.7268790999660268,standard,3,20,B
10,1,switch/standard,j,f,Test,10,30,-20.84275308,-36.88849953,j,0.6803185999742709,standard,3,21,A
10,9,switch/standard,j,f,A,17,113,-5.541832691,31.07890857909637,j,0.8660918999812566,standard,3,22,A
10,21,switch/standard,j,f,B,40,30,45.13982813678688,-35.30081098,f,0.8701280999812298,standard,3,23,B
10,22,switch/standard,j,f,B,40,57,41.88083319458841,-14.98800492,f,0.7041022999910638,standard,3,24,B
10,21,switch/standard,j,f,B,40,30,45.13982813678688,-35.30081098,f,0.497714500001166,switch,3,25,B
10,13,switch/standard,j,f,Test,25,85,9.818056926810664,7.222251006984481,j,0.740172799967695,standard,3,26,A
10,19,switch/standard,j,f,Test,33,113,26.34861461926153,27.630709460791525,f,0.884171099984087,standard,3,27,B
10,3,switch/standard,j,f,A,10,85,-26.47077232,11.92758930596587,j,0.5997642999864183,standard,3,28,A
10,7,switch/standard,j,f,Test,17,57,-6.953638003,-14.02238557,j,1.2218157000024803,switch,3,29,A
10,25,switch/standard,j,f,Test,40,140,38.35549087886737,42.56620206713007,j,1.2097101000254042,standard,3,30,A
10,15,switch/standard,j,f,A,25,140,12.129448921922751,51.77476957,j,0.6942574999993667,standard,3,31,A
10,13,switch/standard,j,f,Test,25,85,9.818056926810664,7.222251006984481,j,1.041771800024435,standard,3,32,A
10,2,switch/standard,j,f,A,10,57,-24.53495333,-12.0763604,j,0.4688888000091538,standard,3,33,A
10,2,switch/standard,j,f,A,10,57,-24.53495333,-12.0763604,j,0.4404448000132106,switch,3,34,A
10,8,switch/standard,j,f,A,17,85,-8.995342757,8.387433417892344,j,0.7242545999470167,standard,3,35,A
10,15,switch/standard,j,f,A,25,140,12.129448921922751,51.77476957,j,1.0212056000018492,switch,3,36,A
10,11,switch/standard,j,f,B,25,30,13.264524555129096,-38.2203846,f,0.7699675999465398,standard,3,37,B
10,24,switch/standard,j,f,B,40,113,37.71162000489743,24.31290640287821,f,1.1440417999983763,switch,3,38,B
10,1,switch/standard,j,f,Test,10,30,-20.84275308,-36.88849953,f,1.2806249999557622,standard,3,39,B
10,16,switch/standard,j,f,B,33,30,30.19684495481618,-38.42373928,f,0.7871165999677032,switch,3,40,B
10,6,switch/standard,j,f,B,17,30,-3.854444584,-37.8392214,f,0.9450154000078328,standard,3,41,B
10,1,switch/standard,j,f,Test,10,30,-20.84275308,-36.88849953,f,1.3441239999956451,switch,3,42,B
10,4,switch/standard,j,f,A,10,113,-23.83479794,30.479004461502832,j,0.6882351999520324,standard,3,43,A
10,17,switch/standard,j,f,B,33,57,26.21866752665977,-14.79865055,f,1.890831900003832,standard,3,44,B
10,7,switch/standard,j,f,Test,17,57,-6.953638003,-14.02238557,j,1.0356495999731123,standard,3,45,A
10,19,switch/standard,j,f,Test,33,113,26.34861461926153,27.630709460791525,f,1.896323000022676,standard,3,46,B
10,7,switch/standard,j,f,Test,17,57,-6.953638003,-14.02238557,j,0.7931948999757878,standard,3,47,A
10,12,switch/standard,j,f,B,25,57,9.177647168036223,-16.07892918,f,1.4953095000237226,standard,3,48,B
10,13,switch/standard,j,f,Test,25,85,9.818056926810664,7.222251006984481,f,0.7370929000317119,switch,3,49,B
10,13,switch/standard,j,f,Test,25,85,9.818056926810664,7.222251006984481,j,0.904529099992942,standard,3,50,A
10,19,switch/standard,j,f,Test,33,113,26.34861461926153,27.630709460791525,j,0.8582030000397936,switch,3,51,A
10,7,switch/standard,j,f,Test,17,57,-6.953638003,-14.02238557,f,1.3417033000150695,standard,3,52,B
10,5,switch/standard,j,f,A,10,140,-16.71390068,50.111230393533226,j,0.7330798999755643,standard,3,53,A
10,25,switch/standard,j,f,Test,40,140,38.35549087886737,42.56620206713007,j,1.1898883000249043,standard,3,54,A
10,25,switch/standard,j,f,Test,40,140,38.35549087886737,42.56620206713007,j,1.2831671999883838,switch,3,55,A
11,13,standard/switch,f,j,Test,25,85,9.818056926810664,7.222251006984481,f,4.482359999965411,standard,1,1,A
11,5,standard/switch,f,j,A,10,140,-16.71390068,50.111230393533226,f,1.4654198000207543,standard,1,2,A
11,2,standard/switch,f,j,A,10,57,-24.53495333,-12.0763604,f,1.1731466999626718,standard,1,3,A
11,1,standard/switch,f,j,Test,10,30,-20.84275308,-36.88849953,f,1.4993789000436664,switch,1,4,A
11,13,standard/switch,f,j,Test,25,85,9.818056926810664,7.222251006984481,f,0.9569910999853164,standard,1,5,A
11,2,standard/switch,f,j,A,10,57,-24.53495333,-12.0763604,f,1.1005834999959916,switch,1,6,A
11,11,standard/switch,f,j,B,25,30,13.264524555129096,-38.2203846,j,0.6545405999640934,standard,1,7,B
11,12,standard/switch,f,j,B,25,57,9.177647168036223,-16.07892918,j,0.6346157999942079,standard,1,8,B
11,7,standard/switch,f,j,Test,17,57,-6.953638003,-14.02238557,f,1.1657571999821812,standard,1,9,A
11,14,standard/switch,f,j,A,25,113,8.045214428,27.52140038259675,f,1.1810652000131086,standard,1,10,A
11,7,standard/switch,f,j,Test,17,57,-6.953638003,-14.02238557,j,1.0913658000063151,standard,1,11,B
11,25,standard/switch,f,j,Test,40,140,38.35549087886737,42.56620206713007,f,0.981445999990683,switch,1,12,A
11,8,standard/switch,f,j,A,17,85,-8.995342757,8.387433417892344,f,1.0587748999823816,standard,1,13,A
11,6,standard/switch,f,j,B,17,30,-3.854444584,-37.8392214,j,0.631318400031887,switch,1,14,B
11,19,standard/switch,f,j,Test,33,113,26.34861461926153,27.630709460791525,f,0.8362435000017285,standard,1,15,A
11,25,standard/switch,f,j,Test,40,140,38.35549087886737,42.56620206713007,f,0.7843955000280403,standard,1,16,A
11,6,standard/switch,f,j,B,17,30,-3.854444584,-37.8392214,j,0.6627894999692217,standard,1,17,B
11,25,standard/switch,f,j,Test,40,140,38.35549087886737,42.56620206713007,f,0.5616698999656364,standard,1,18,A
11,13,standard/switch,f,j,Test,25,85,9.818056926810664,7.222251006984481,f,0.8489603000343777,standard,1,19,A
11,1,standard/switch,f,j,Test,10,30,-20.84275308,-36.88849953,j,0.6785323999938555,standard,1,20,B
11,15,standard/switch,f,j,A,25,140,12.129448921922751,51.77476957,f,0.4726912999758497,switch,1,21,A
11,16,standard/switch,f,j,B,33,30,30.19684495481618,-38.42373928,j,0.43522449996089563,standard,1,22,B
11,10,standard/switch,f,j,A,17,140,-1.732665378,46.70107673091564,f,0.4077458999818191,standard,1,23,A
11,19,standard/switch,f,j,Test,33,113,26.34861461926153,27.630709460791525,f,0.413201300019864,standard,1,24,A
11,22,standard/switch,f,j,B,40,57,41.88083319458841,-14.98800492,j,0.4268230000161566,standard,1,25,B
11,16,standard/switch,f,j,B,33,30,30.19684495481618,-38.42373928,j,0.4238245000015013,switch,1,26,B
11,19,standard/switch,f,j,Test,33,113,26.34861461926153,27.630709460791525,f,0.6052671000361443,standard,1,27,A
11,21,standard/switch,f,j,B,40,30,45.13982813678688,-35.30081098,j,0.46712759998627007,switch,1,28,B
11,7,standard/switch,f,j,Test,17,57,-6.953638003,-14.02238557,f,0.6460570000344887,standard,1,29,A
11,25,standard/switch,f,j,Test,40,140,38.35549087886737,42.56620206713007,f,0.4990345999831334,standard,1,30,A
11,1,standard/switch,f,j,Test,10,30,-20.84275308,-36.88849953,f,0.7570936999982223,standard,1,31,A
11,9,standard/switch,f,j,A,17,113,-5.541832691,31.07890857909637,f,0.5169456000439823,standard,1,32,A
11,5,standard/switch,f,j,A,10,140,-16.71390068,50.111230393533226,f,0.445516099978704,switch,1,33,A
11,17,standard/switch,f,j,B,33,57,26.21866752665977,-14.79865055,j,0.5384397999732755,standard,1,34,B
11,18,standard/switch,f,j,B,33,85,26.821232143487904,6.976824754974014,j,1.0262552000349388,standard,1,35,B
11,20,standard/switch,f,j,A,33,140,26.14711175410772,43.96860584938808,f,0.4869263999862597,switch,1,36,A
11,25,standard/switch,f,j,Test,40,140,38.35549087886737,42.56620206713007,f,0.609369500016328,standard,1,37,A
11,19,standard/switch,f,j,Test,33,113,26.34861461926153,27.630709460791525,f,0.7586876000277698,switch,1,38,A
11,23,standard/switch,f,j,B,40,85,38.21996555398914,5.057706707981728,j,0.8858793000108562,standard,1,39,B
11,24,standard/switch,f,j,B,40,113,37.71162000489743,24.31290640287821,j,0.696605900011491,standard,1,40,B
11,13,standard/switch,f,j,Test,25,85,9.818056926810664,7.222251006984481,f,0.8024193000164814,standard,1,41,A
11,20,standard/switch,f,j,A,33,140,26.14711175410772,43.96860584938808,f,0.5279295000364073,standard,1,42,A
11,17,standard/switch,f,j,B,33,57,26.21866752665977,-14.79865055,j,0.5140294000157155,switch,1,43,B
11,15,standard/switch,f,j,A,25,140,12.129448921922751,51.77476957,f,0.49935940001159906,standard,1,44,A
11,19,standard/switch,f,j,Test,33,113,26.34861461926153,27.630709460791525,f,0.5411813000100665,standard,1,45,A
11,7,standard/switch,f,j,Test,17,57,-6.953638003,-14.02238557,j,0.589511499973014,switch,1,46,B
11,7,standard/switch,f,j,Test,17,57,-6.953638003,-14.02238557,f,0.5235512999934144,standard,1,47,A
11,3,standard/switch,f,j,A,10,85,-26.47077232,11.92758930596587,f,0.564906699990388,standard,1,48,A
11,1,standard/switch,f,j,Test,10,30,-20.84275308,-36.88849953,j,0.7488641000236385,standard,1,49,B
11,10,standard/switch,f,j,A,17,140,-1.732665378,46.70107673091564,f,0.5886958999908529,switch,1,50,A
11,4,standard/switch,f,j,A,10,113,-23.83479794,30.479004461502832,f,0.5069191999500617,standard,1,51,A
11,1,standard/switch,f,j,Test,10,30,-20.84275308,-36.88849953,j,1.0523741000215523,standard,1,52,B
11,13,standard/switch,f,j,Test,25,85,9.818056926810664,7.222251006984481,j,0.9910816999617964,switch,1,53,B
11,21,standard/switch,f,j,B,40,30,45.13982813678688,-35.30081098,j,0.549698900023941,standard,1,54,B
11,24,standard/switch,f,j,B,40,113,37.71162000489743,24.31290640287821,f,0.5895715999649838,switch,1,55,A
11,4,standard/switch,f,j,A,10,113,-23.83479794,30.479004461502832,f,0.6503189000068232,standard,2,1,A
11,19,standard/switch,f,j,Test,33,113,26.34861461926153,27.630709460791525,f,0.5426653999602422,standard,2,2,A
11,19,standard/switch,f,j,Test,33,113,26.34861461926153,27.630709460791525,f,0.496162399998866,standard,2,3,A
11,13,standard/switch,f,j,Test,25,85,9.818056926810664,7.222251006984481,f,0.609686599986162,standard,2,4,A
11,7,standard/switch,f,j,Test,17,57,-6.953638003,-14.02238557,j,0.5757128999684937,switch,2,5,B
11,22,standard/switch,f,j,B,40,57,41.88083319458841,-14.98800492,j,0.4865093000116758,standard,2,6,B
11,6,standard/switch,f,j,B,17,30,-3.854444584,-37.8392214,j,0.4488612000131979,standard,2,7,B
11,7,standard/switch,f,j,Test,17,57,-6.953638003,-14.02238557,j,0.3970610999967903,standard,2,8,B
11,20,standard/switch,f,j,A,33,140,26.14711175410772,43.96860584938808,f,0.5148993999464437,switch,2,9,A
11,24,standard/switch,f,j,B,40,113,37.71162000489743,24.31290640287821,j,0.4687868999899365,standard,2,10,B
11,1,standard/switch,f,j,Test,10,30,-20.84275308,-36.88849953,j,0.7041820000158623,standard,2,11,B
11,1,standard/switch,f,j,Test,10,30,-20.84275308,-36.88849953,j,0.585502700007055,switch,2,12,B
11,7,standard/switch,f,j,Test,17,57,-6.953638003,-14.02238557,j,0.4237002999871038,standard,2,13,B
11,9,standard/switch,f,j,A,17,113,-5.541832691,31.07890857909637,f,0.5244583999738097,standard,2,14,A
11,16,standard/switch,f,j,B,33,30,30.19684495481618,-38.42373928,j,0.6934034000150859,switch,2,15,B
11,10,standard/switch,f,j,A,17,140,-1.732665378,46.70107673091564,f,0.42373569996561855,standard,2,16,A
11,5,standard/switch,f,j,A,10,140,-16.71390068,50.111230393533226,f,0.5325351000064984,switch,2,17,A
11,25,standard/switch,f,j,Test,40,140,38.35549087886737,42.56620206713007,f,2.533805300015956,standard,2,18,A
11,5,standard/switch,f,j,A,10,140,-16.71390068,50.111230393533226,f,0.461276700021699,standard,2,19,A
11,14,standard/switch,f,j,A,25,113,8.045214428,27.52140038259675,f,0.448311299958732,standard,2,20,A
11,13,standard/switch,f,j,Test,25,85,9.818056926810664,7.222251006984481,j,0.7179088999982923,standard,2,21,B
11,21,standard/switch,f,j,B,40,30,45.13982813678688,-35.30081098,j,0.4227076999959536,standard,2,22,B
11,19,standard/switch,f,j,Test,33,113,26.34861461926153,27.630709460791525,f,0.6031628000200726,standard,2,23,A
11,6,standard/switch,f,j,B,17,30,-3.854444584,-37.8392214,j,0.4813862000009976,switch,2,24,B
11,19,standard/switch,f,j,Test,33,113,26.34861461926153,27.630709460791525,f,0.6037100999965332,standard,2,25,A
11,13,standard/switch,f,j,Test,25,85,9.818056926810664,7.222251006984481,j,0.4654512000270188,standard,2,26,B
11,15,standard/switch,f,j,A,25,140,12.129448921922751,51.77476957,f,0.5973435000050813,standard,2,27,A
11,2,standard/switch,f,j,A,10,57,-24.53495333,-12.0763604,j,0.5057323999935761,switch,2,28,B
11,12,standard/switch,f,j,B,25,57,9.177647168036223,-16.07892918,f,0.644606499990914,standard,2,29,A
11,25,standard/switch,f,j,Test,40,140,38.35549087886737,42.56620206713007,f,0.46466370002599433,standard,2,30,A
11,1,standard/switch,f,j,Test,10,30,-20.84275308,-36.88849953,j,0.4923799999523908,standard,2,31,B
11,7,standard/switch,f,j,Test,17,57,-6.953638003,-14.02238557,j,0.5109366999822669,standard,2,32,B
11,1,standard/switch,f,j,Test,10,30,-20.84275308,-36.88849953,j,0.4087087999796495,standard,2,33,B
11,1,standard/switch,f,j,Test,10,30,-20.84275308,-36.88849953,j,0.4946735000121407,standard,2,34,B
11,16,standard/switch,f,j,B,33,30,30.19684495481618,-38.42373928,j,0.4892540000146255,standard,2,35,B
11,18,standard/switch,f,j,B,33,85,26.821232143487904,6.976824754974014,j,0.47438279999187216,standard,2,36,B
11,25,standard/switch,f,j,Test,40,140,38.35549087886737,42.56620206713007,f,0.4641136000282131,switch,2,37,A
11,20,standard/switch,f,j,A,33,140,26.14711175410772,43.96860584938808,f,0.6252062999992631,standard,2,38,A
11,23,standard/switch,f,j,B,40,85,38.21996555398914,5.057706707981728,j,0.52628590003587306,standard,2,39,B
11,25,standard/switch,f,j,Test,40,140,38.35549087886737,42.56620206713007,f,0.5917656000237912,standard,2,40,A
11,8,standard/switch,f,j,A,17,85,-8.995342757,8.387433417892344,f,0.4699806999997236,standard,2,41,A
11,13,standard/switch,f,j,Test,25,85,9.818056926810664,7.222251006984481,j,0.4334358000196517,switch,2,42,B
11,13,standard/switch,f,j,Test,25,85,9.818056926810664,7.222251006984481,j,0.3342261000070721,standard,2,43,B
11,10,standard/switch,f,j,A,17,140,-1.732665378,46.70107673091564,j,0.318301799998153,switch,2,44,B
11,2,standard/switch,f,j,A,10,57,-24.53495333,-12.0763604,j,0.47145449998788536,standard,2,45,B
11,19,standard/switch,f,j,Test,33,113,26.34861461926153,27.630709460791525,f,0.4659705999656581,switch,2,46,A
11,25,standard/switch,f,j,Test,40,140,38.35549087886737,42.56620206713007,f,0.4384905000333674,standard,2,47,A
11,24,standard/switch,f,j,B,40,113,37.71162000489743,24.31290640287821,f,0.4101893000188283,switch,2,48,A
11,17,standard/switch,f,j,B,33,57,26.21866752665977,-14.79865055,j,0.5605977999512106,standard,2,49,B
11,11,standard/switch,f,j,B,25,30,13.264524555129096,-38.2203846,j,0.35173409996787086,standard,2,50,B
11,17,standard/switch,f,j,B,33,57,26.21866752665977,-14.79865055,j,0.2880758999963291,switch,2,51,B
11,3,standard/switch,f,j,A,10,85,-26.47077232,11.92758930596587,f,0.5375372999696992,standard,2,52,A
11,21,standard/switch,f,j,B,40,30,45.13982813678688,-35.30081098,j,0.5468853999627754,switch,2,53,B
11,7,standard/switch,f,j,Test,17,57,-6.953638003,-14.02238557,j,1.1790347000351176,standard,2,54,B
11,15,standard/switch,f,j,A,25,140,12.129448921922751,51.77476957,f,0.4172145000193268,switch,2,55,A
11,16,standard/switch,f,j,B,33,30,30.19684495481618,-38.42373928,j,0.6616261000162922,standard,3,1,B
11,16,standard/switch,f,j,B,33,30,30.19684495481618,-38.42373928,j,0.40851460001431406,switch,3,2,B
11,1,standard/switch,f,j,Test,10,30,-20.84275308,-36.88849953,j,0.3424248000374064,standard,3,3,B
11,7,standard/switch,f,j,Test,17,57,-6.953638003,-14.02238557,f,0.35072019998915493,standard,3,4,A
11,1,standard/switch,f,j,Test,10,30,-20.84275308,-36.88849953,f,0.4720062999986112,switch,3,5,A
11,22,standard/switch,f,j,B,40,57,41.88083319458841,-14.98800492,j,0.35437960003037006,standard,3,6,B
11,14,standard/switch,f,j,A,25,113,8.045214428,27.52140038259675,j,0.28188739996403456,standard,3,7,B
11,17,standard/switch,f,j,B,33,57,26.21866752665977,-14.79865055,j,0.4534398000105284,standard,3,8,B
11,5,standard/switch,f,j,A,10,140,-16.71390068,50.111230393533226,f,0.4016313000465743,switch,3,9,A
11,1,standard/switch,f,j,Test,10,30,-20.84275308,-36.88849953,f,0.7996411999920383,standard,3,10,A
11,9,standard/switch,f,j,A,17,113,-5.541832691,31.07890857909637,f,0.5088888999889605,standard,3,11,A
11,21,standard/switch,f,j,B,40,30,45.13982813678688,-35.30081098,j,0.4630905999802053,switch,3,12,B
11,19,standard/switch,f,j,Test,33,113,26.34861461926153,27.630709460791525,f,2.538123700011056,standard,3,13,A
11,13,standard/switch,f,j,Test,25,85,9.818056926810664,7.222251006984481,f,0.3694961000001058,standard,3,14,A
11,18,standard/switch,f,j,B,33,85,26.821232143487904,6.976824754974014,f,0.35975079995114356,standard,3,15,A
11,11,standard/switch,f,j,B,25,30,13.264524555129096,-38.2203846,j,0.44820879999315366,standard,3,16,B
11,24,standard/switch,f,j,B,40,113,37.71162000489743,24.31290640287821,j,0.37997579999500886,switch,3,17,B
11,15,standard/switch,f,j,A,25,140,12.129448921922751,51.77476957,f,0.6270377000328153,standard,3,18,A
11,19,standard/switch,f,j,Test,33,113,26.34861461926153,27.630709460791525,f,0.5206849999958649,standard,3,19,A
11,20,standard/switch,f,j,A,33,140,26.14711175410772,43.96860584938808,f,0.4335907999775373,standard,3,20,A
11,6,standard/switch,f,j,B,17,30,-3.854444584,-37.8392214,j,0.4062235999736003,switch,3,21,B
11,1,standard/switch,f,j,Test,10,30,-20.84275308,-36.88849953,j,0.5001144999987446,standard,3,22,B
11,8,standard/switch,f,j,A,17,85,-8.995342757,8.387433417892344,j,0.3263712999760173,standard,3,23,B
11,25,standard/switch,f,j,Test,40,140,38.35549087886737,42.56620206713007,f,0.47111610003048554,standard,3,24,A
11,10,standard/switch,f,j,A,17,140,-1.732665378,46.70107673091564,f,0.3618950000382029,standard,3,25,A
11,2,standard/switch,f,j,A,10,57,-24.53495333,-12.0763604,j,0.5383466000203043,switch,3,26,B
11,23,standard/switch,f,j,B,40,85,38.21996555398914,5.057706707981728,f,0.4025711999856867,standard,3,27,A
11,25,standard/switch,f,j,Test,40,140,38.35549087886737,42.56620206713007,f,0.4405371999600902,standard,3,28,A
11,2,standard/switch,f,j,A,10,57,-24.53495333,-12.0763604,f,0.5245873000239953,standard,3,29,A
11,7,standard/switch,f,j,Test,17,57,-6.953638003,-14.02238557,j,0.3730871999869123,standard,3,30,B
11,10,standard/switch,f,j,A,17,140,-1.732665378,46.70107673091564,j,0.3806841999758035,switch,3,31,B
11,13,standard/switch,f,j,Test,25,85,9.818056926810664,7.222251006984481,f,0.7876540999859571,standard,3,32,A
11,13,standard/switch,f,j,Test,25,85,9.818056926810664,7.222251006984481,j,1.257490099989809,switch,3,33,B
11,19,standard/switch,f,j,Test,33,113,26.34861461926153,27.630709460791525,f,1.332939800049644,standard,3,34,A
11,20,standard/switch,f,j,A,33,140,26.14711175410772,43.96860584938808,f,0.6778381000040099,switch,3,35,A
11,24,standard/switch,f,j,B,40,113,37.71162000489743,24.31290640287821,f,0.37555220001377165,standard,3,36,A
11,25,standard/switch,f,j,Test,40,140,38.35549087886737,42.56620206713007,f,0.4234201000072062,standard,3,37,A
11,12,standard/switch,f,j,B,25,57,9.177647168036223,-16.07892918,j,0.5809113999712281,standard,3,38,B
11,21,standard/switch,f,j,B,40,30,45.13982813678688,-35.30081098,f,0.6192178999772295,standard,3,39,A
11,5,standard/switch,f,j,A,10,140,-16.71390068,50.111230393533226,f,0.5200397000298835,standard,3,40,A
11,13,standard/switch,f,j,Test,25,85,9.818056926810664,7.222251006984481,f,0.8248318000114523,standard,3,41,A
11,19,standard/switch,f,j,Test,33,113,26.34861461926153,27.630709460791525,j,0.3654331000288949,standard,3,42,B
11,25,standard/switch,f,j,Test,40,140,38.35549087886737,42.56620206713007,f,0.5653633999754675,switch,3,43,A
11,25,standard/switch,f,j,Test,40,140,38.35549087886737,42.56620206713007,f,0.5485875000013039,standard,3,44,A
11,15,standard/switch,f,j,A,25,140,12.129448921922751,51.77476957,f,0.4054590000305325,switch,3,45,A
11,7,standard/switch,f,j,Test,17,57,-6.953638003,-14.02238557,j,0.5389471999951638,standard,3,46,B
11,1,standard/switch,f,j,Test,10,30,-20.84275308,-36.88849953,j,0.5403243000037037,standard,3,47,B
11,19,standard/switch,f,j,Test,33,113,26.34861461926153,27.630709460791525,j,0.36377870000433177,switch,3,48,B
11,7,standard/switch,f,j,Test,17,57,-6.953638003,-14.02238557,j,0.4594488999573514,standard,3,49,B
11,7,standard/switch,f,j,Test,17,57,-6.953638003,-14.02238557,j,0.2948896000161767,switch,3,50,B
11,13,standard/switch,f,j,Test,25,85,9.818056926810664,7.222251006984481,j,0.3779985000146553,standard,3,51,B
11,4,standard/switch,f,j,A,10,113,-23.83479794,30.479004461502832,j,0.36868369998410344,standard,3,52,B
11,3,standard/switch,f,j,A,10,85,-26.47077232,11.92758930596587,f,0.3997862000251189,standard,3,53,A
11,6,standard/switch,f,j,B,17,30,-3.854444584,-37.8392214,f,0.35087149997707456,standard,3,54,A
11,17,standard/switch,f,j,B,33,57,26.21866752665977,-14.79865055,j,0.7988109000143595,switch,3,55,B
12,1,switch/standard,f,j,Test,10,30,-20.84275308,-36.88849953,f,1.8258766999933869,standard,1,1,A
12,13,switch/standard,f,j,Test,25,85,9.818056926810664,7.222251006984481,f,1.2938064999761991,standard,1,2,A
12,19,switch/standard,f,j,Test,33,113,26.34861461926153,27.630709460791525,j,1.0321421999833549,switch,1,3,B
12,20,switch/standard,f,j,A,33,140,26.14711175410772,43.96860584938808,j,0.5398698999779299,standard,1,4,B
12,15,switch/standard,f,j,A,25,140,12.129448921922751,51.77476957,f,0.988136800006032,switch,1,5,A
12,19,switch/standard,f,j,Test,33,113,26.34861461926153,27.630709460791525,j,0.5074729000334628,standard,1,6,B
12,9,switch/standard,f,j,A,17,113,-5.541832691,31.07890857909637,f,0.5329988999874331,standard,1,7,A
12,1,switch/standard,f,j,Test,10,30,-20.84275308,-36.88849953,f,0.5572050000191666,standard,1,8,A
12,19,switch/standard,f,j,Test,33,113,26.34861461926153,27.630709460791525,j,0.5171886999742128,standard,1,9,B
12,2,switch/standard,f,j,A,10,57,-24.53495333,-12.0763604,f,0.5269891999778338,standard,1,10,A
12,13,switch/standard,f,j,Test,25,85,9.818056926810664,7.222251006984481,j,1.1436564000323417,standard,1,11,B
12,11,switch/standard,f,j,B,25,30,13.264524555129096,-38.2203846,j,0.511951600026805,standard,1,12,B
12,1,switch/standard,f,j,Test,10,30,-20.84275308,-36.88849953,f,0.6006511999876238,switch,1,13,A
12,25,switch/standard,f,j,Test,40,140,38.35549087886737,42.56620206713007,j,0.5586312999948859,standard,1,14,B
12,6,switch/standard,f,j,B,17,30,-3.854444584,-37.8392214,f,1.502544700051658,switch,1,15,A
12,5,switch/standard,f,j,A,10,140,-16.71390068,50.111230393533226,f,0.5279886999633163,standard,1,16,A
12,10,switch/standard,f,j,A,17,140,-1.732665378,46.70107673091564,f,0.4486978000495583,switch,1,17,A
12,1,switch/standard,f,j,Test,10,30,-20.84275308,-36.88849953,f,0.42906829999992624,standard,1,18,A
12,18,switch/standard,f,j,B,33,85,26.821232143487904,6.976824754974014,j,0.48229399998672307,standard,1,19,B
12,25,switch/standard,f,j,Test,40,140,38.35549087886737,42.56620206713007,j,0.4535355999832973,standard,1,20,B
12,25,switch/standard,f,j,Test,40,140,38.35549087886737,42.56620206713007,j,0.4330473999725654,standard,1,21,B
12,17,switch/standard,f,j,B,33,57,26.21866752665977,-14.79865055,j,0.4529904999653809,switch,1,22,B
12,21,switch/standard,f,j,B,40,30,45.13982813678688,-35.30081098,j,0.4982116000028327,standard,1,23,B
12,6,switch/standard,f,j,B,17,30,-3.854444584,-37.8392214,f,0.5480734000448138,standard,1,24,A
12,21,switch/standard,f,j,B,40,30,45.13982813678688,-35.30081098,j,0.44463469996117055,switch,1,25,B
12,1,switch/standard,f,j,Test,10,30,-20.84275308,-36.88849953,f,0.5204683000338264,standard,1,26,A
12,10,switch/standard,f,j,A,17,140,-1.732665378,46.70107673091564,f,0.6091569000273012,standard,1,27,A
12,13,switch/standard,f,j,Test,25,85,9.818056926810664,7.222251006984481,f,1.0791613000328653,standard,1,28,A
12,7,switch/standard,f,j,Test,17,57,-6.953638003,-14.02238557,f,1.482296000001952,standard,1,29,A
12,17,switch/standard,f,j,B,33,57,26.21866752665977,-14.79865055,j,0.6914679000037722,standard,1,30,B
12,13,switch/standard,f,j,Test,25,85,9.818056926810664,7.222251006984481,f,1.110028599970974,switch,1,31,A
12,16,switch/standard,f,j,B,33,30,30.19684495481618,-38.42373928,j,0.5524697999935597,standard,1,32,B
12,13,switch/standard,f,j,Test,25,85,9.818056926810664,7.222251006984481,f,1.2864791000029072,standard,1,33,A
12,24,switch/standard,f,j,B,40,113,37.71162000489743,24.31290640287821,j,0.6412415999802761,standard,1,34,B
12,2,switch/standard,f,j,A,10,57,-24.53495333,-12.0763604,f,0.613328100007493,switch,1,35,A
12,4,switch/standard,f,j,A,10,113,-23.83479794,30.479004461502832,f,0.5622542999917641,standard,1,36,A
12,5,switch/standard,f,j,A,10,140,-16.71390068,50.111230393533226,f,0.5465177000151016,switch,1,37,A
12,12,switch/standard,f,j,B,25,57,9.177647168036223,-16.07892918,j,0.7638855999684893,standard,1,38,B
12,16,switch/standard,f,j,B,33,30,30.19684495481618,-38.42373928,j,0.5060985000454821,switch,1,39,B
12,19,switch/standard,f,j,Test,33,113,26.34861461926153,27.630709460791525,j,0.7072803999762982,standard,1,40,B
12,22,switch/standard,f,j,B,40,57,41.88083319458841,-14.98800492,j,0.7174744000076316,standard,1,41,B
12,8,switch/standard,f,j,A,17,85,-8.995342757,8.387433417892344,f,0.502448600018397,standard,1,42,A
12,7,switch/standard,f,j,Test,17,57,-6.953638003,-14.02238557,f,0.5762121000443585,standard,1,43,A
12,20,switch/standard,f,j,A,33,140,26.14711175410772,43.96860584938808,j,2.1583547999616712,switch,1,44,B
12,23,switch/standard,f,j,B,40,85,38.21996555398914,5.057706707981728,j,0.6368750000256114,standard,1,45,B
12,3,switch/standard,f,j,A,10,85,-26.47077232,11.92758930596587,f,0.4974114000215195,standard,1,46,A
12,7,switch/standard,f,j,Test,17,57,-6.953638003,-14.02238557,f,0.6682720000389963,standard,1,47,A
12,24,switch/standard,f,j,B,40,113,37.71162000489743,24.31290640287821,j,0.4468314999830909,switch,1,48,B
12,15,switch/standard,f,j,A,25,140,12.129448921922751,51.77476957,f,0.49184120004065335,standard,1,49,A
12,7,switch/standard,f,j,Test,17,57,-6.953638003,-14.02238557,f,0.6295738000189885,standard,1,50,A
12,7,switch/standard,f,j,Test,17,57,-6.953638003,-14.02238557,f,0.5946669999975711,switch,1,51,A
12,19,switch/standard,f,j,Test,33,113,26.34861461926153,27.630709460791525,j,0.4571666999836452,standard,1,52,B
12,25,switch/standard,f,j,Test,40,140,38.35549087886737,42.56620206713007,j,0.5804099999950267,switch,1,53,B
12,14,switch/standard,f,j,A,25,113,8.045214428,27.52140038259675,f,0.6038048000191338,standard,1,54,A
12,25,switch/standard,f,j,Test,40,140,38.35549087886737,42.56620206713007,j,0.7300416000070982,standard,1,55,B
12,17,switch/standard,f,j,B,33,57,26.21866752665977,-14.79865055,j,0.8049035999574699,standard,2,1,B
12,11,switch/standard,f,j,B,25,30,13.264524555129096,-38.2203846,j,1.689555199991446,standard,2,2,B
12,25,switch/standard,f,j,Test,40,140,38.35549087886737,42.56620206713007,j,0.6585557999787852,switch,2,3,B
12,7,switch/standard,f,j,Test,17,57,-6.953638003,-14.02238557,f,1.3185759999905713,standard,2,4,A
12,15,switch/standard,f,j,A,25,140,12.129448921922751,51.77476957,f,0.911554399994202,switch,2,5,A
12,14,switch/standard,f,j,A,25,113,8.045214428,27.52140038259675,f,1.001434500038158,standard,2,6,A
12,19,switch/standard,f,j,Test,33,113,26.34861461926153,27.630709460791525,j,0.461710800009314,standard,2,7,B
12,1,switch/standard,f,j,Test,10,30,-20.84275308,-36.88849953,f,0.402199300006032,standard,2,8,A
12,25,switch/standard,f,j,Test,40,140,38.35549087886737,42.56620206713007,j,0.7197986000101082,standard,2,9,B
12,23,switch/standard,f,j,B,40,85,38.21996555398914,5.057706707981728,j,0.5452335000154562,standard,2,10,B
12,6,switch/standard,f,j,B,17,30,-3.854444584,-37.8392214,j,1.8088363999850117,standard,2,11,B
12,7,switch/standard,f,j,Test,17,57,-6.953638003,-14.02238557,f,1.6616438000346534,switch,2,12,A
12,3,switch/standard,f,j,A,10,85,-26.47077232,11.92758930596587,f,0.496817400038708,standard,2,13,A
12,12,switch/standard,f,j,B,25,57,9.177647168036223,-16.07892918,j,0.514238599978853,standard,2,14,B
12,7,switch/standard,f,j,Test,17,57,-6.953638003,-14.02238557,f,0.5164248999790289,standard,2,15,A
12,6,switch/standard,f,j,B,17,30,-3.854444584,-37.8392214,f,3.6935371000436135,switch,2,16,A
12,25,switch/standard,f,j,Test,40,140,38.35549087886737,42.56620206713007,j,0.6138951000175439,standard,2,17,B
12,20,switch/standard,f,j,A,33,140,26.14711175410772,43.96860584938808,j,0.41187780001200736,switch,2,18,B
12,1,switch/standard,f,j,Test,10,30,-20.84275308,-36.88849953,f,0.7137824000092223,standard,2,19,A
12,2,switch/standard,f,j,A,10,57,-24.53495333,-12.0763604,f,0.5707323999959044,switch,2,20,A
12,24,switch/standard,f,j,B,40,113,37.71162000489743,24.31290640287821,j,0.4496272999676876,standard,2,21,B
12,16,switch/standard,f,j,B,33,30,30.19684495481618,-38.42373928,j,0.4853339000255801,standard,2,22,B
12,1,switch/standard,f,j,Test,10,30,-20.84275308,-36.88849953,f,0.9281447000103072,standard,2,23,A
12,13,switch/standard,f,j,Test,25,85,9.818056926810664,7.222251006984481,f,1.0490379999973811,standard,2,24,A
12,21,switch/standard,f,j,B,40,30,45.13982813678688,-35.30081098,j,0.4692798999603838,switch,2,25,B
12,15,switch/standard,f,j,A,25,140,12.129448921922751,51.77476957,f,0.5279711000039242,standard,2,26,A
12,1,switch/standard,f,j,Test,10,30,-20.84275308,-36.88849953,f,0.6242117000510916,switch,2,27,A
12,25,switch/standard,f,j,Test,40,140,38.35549087886737,42.56620206713007,j,0.5418182999710552,standard,2,28,B
12,22,switch/standard,f,j,B,40,57,41.88083319458841,-14.98800492,j,0.4621581999817863,standard,2,29,B
12,20,switch/standard,f,j,A,33,140,26.14711175410772,43.96860584938808,f,0.9696418000385164,standard,2,30,A
12,25,switch/standard,f,j,Test,40,140,38.35549087886737,42.56620206713007,j,0.5204356000176631,standard,2,31,B
12,10,switch/standard,f,j,A,17,140,-1.732665378,46.70107673091564,f,0.561774100002367,standard,2,32,A
12,19,switch/standard,f,j,Test,33,113,26.34861461926153,27.630709460791525,j,0.4491756000206806,standard,2,33,B
12,13,switch/standard,f,j,Test,25,85,9.818056926810664,7.222251006984481,f,0.7413553000078537,standard,2,34,A
12,5,switch/standard,f,j,A,10,140,-16.71390068,50.111230393533226,f,0.5493372000055388,switch,2,35,A
12,8,switch/standard,f,j,A,17,85,-8.995342757,8.387433417892344,f,0.8775596000486985,standard,2,36,A
12,5,switch/standard,f,j,A,10,140,-16.71390068,50.111230393533226,f,0.5286407999810763,standard,2,37,A
12,13,switch/standard,f,j,Test,25,85,9.818056926810664,7.222251006984481,j,0.3933429999742657,standard,2,38,B
12,9,switch/standard,f,j,A,17,113,-5.541832691,31.07890857909637,f,0.5200376000138931,standard,2,39,A
12,19,switch/standard,f,j,Test,33,113,26.34861461926153,27.630709460791525,j,0.4812930000480264,switch,2,40,B
12,18,switch/standard,f,j,B,33,85,26.821232143487904,6.976824754974014,j,0.4760066000162624,standard,2,41,B
12,10,switch/standard,f,j,A,17,140,-1.732665378,46.70107673091564,f,0.8155302000232041,switch,2,42,A
12,13,switch/standard,f,j,Test,25,85,9.818056926810664,7.222251006984481,f,1.404609800025355,standard,2,43,A
12,4,switch/standard,f,j,A,10,113,-23.83479794,30.479004461502832,f,0.649548799963668,standard,2,44,A
12,19,switch/standard,f,j,Test,33,113,26.34861461926153,27.630709460791525,j,1.269076699973084,standard,2,45,B
12,17,switch/standard,f,j,B,33,57,26.21866752665977,-14.79865055,j,0.48786009999457747,switch,2,46,B
12,7,switch/standard,f,j,Test,17,57,-6.953638003,-14.02238557,f,0.5064598000026308,standard,2,47,A
12,19,switch/standard,f,j,Test,33,113,26.34861461926153,27.630709460791525,j,0.5475797999533825,standard,2,48,B
12,16,switch/standard,f,j,B,33,30,30.19684495481618,-38.42373928,j,0.500558200001251,switch,2,49,B
12,7,switch/standard,f,j,Test,17,57,-6.953638003,-14.02238557,f,0.462359800003469,standard,2,50,A
12,13,switch/standard,f,j,Test,25,85,9.818056926810664,7.222251006984481,f,0.9700126000097952,switch,2,51,A
12,1,switch/standard,f,j,Test,10,30,-20.84275308,-36.88849953,f,0.7931289999978617,standard,2,52,A
12,21,switch/standard,f,j,B,40,30,45.13982813678688,-35.30081098,j,0.4860554999904707,standard,2,53,B
12,24,switch/standard,f,j,B,40,113,37.71162000489743,24.31290640287821,j,0.7053763000294566,switch,2,54,B
12,2,switch/standard,f,j,A,10,57,-24.53495333,-12.0763604,f,0.9862543999915944,standard,2,55,A
12,13,switch/standard,f,j,Test,25,85,9.818056926810664,7.222251006984481,j,0.6705653999815695,standard,3,1,B
12,7,switch/standard,f,j,Test,17,57,-6.953638003,-14.02238557,f,1.1132723999908194,switch,3,2,A
12,19,switch/standard,f,j,Test,33,113,26.34861461926153,27.630709460791525,j,2.402953799988609,standard,3,3,B
12,24,switch/standard,f,j,B,40,113,37.71162000489743,24.31290640287821,j,0.438607599993702,standard,3,4,B
12,20,switch/standard,f,j,A,33,140,26.14711175410772,43.96860584938808,j,1.987531399994623,standard,3,5,B
12,23,switch/standard,f,j,B,40,85,38.21996555398914,5.057706707981728,j,0.49679309997009113,standard,3,6,B
12,2,switch/standard,f,j,A,10,57,-24.53495333,-12.0763604,f,0.9063296999665909,switch,3,7,A
12,17,switch/standard,f,j,B,33,57,26.21866752665977,-14.79865055,j,0.42849919997388497,standard,3,8,B
12,13,switch/standard,f,j,Test,25,85,9.818056926810664,7.222251006984481,f,0.8164222000050358,standard,3,9,A
12,5,switch/standard,f,j,A,10,140,-16.71390068,50.111230393533226,f,0.5833132000407204,standard,3,10,A
12,20,switch/standard,f,j,A,33,140,26.14711175410772,43.96860584938808,j,0.5969256999669597,switch,3,11,B
12,1,switch/standard,f,j,Test,10,30,-20.84275308,-36.88849953,f,0.547635100025218,standard,3,12,A
12,17,switch/standard,f,j,B,33,57,26.21866752665977,-14.79865055,j,0.4040304999798536,switch,3,13,B
12,22,switch/standard,f,j,B,40,57,41.88083319458841,-14.98800492,j,0.4751377999782562,standard,3,14,B
12,19,switch/standard,f,j,Test,33,113,26.34861461926153,27.630709460791525,f,0.9407542000408284,standard,3,15,A
12,14,switch/standard,f,j,A,25,113,8.045214428,27.52140038259675,f,0.725036799965892,standard,3,16,A
12,6,switch/standard,f,j,B,17,30,-3.854444584,-37.8392214,f,0.8048287000274286,switch,3,17,A
12,1,switch/standard,f,j,Test,10,30,-20.84275308,-36.88849953,f,0.473290000052657,standard,3,18,A
12,21,switch/standard,f,j,B,40,30,45.13982813678688,-35.30081098,j,0.4771848000236787,standard,3,19,B
12,25,switch/standard,f,j,Test,40,140,38.35549087886737,42.56620206713007,j,0.6328330999822356,standard,3,20,B
12,19,switch/standard,f,j,Test,33,113,26.34861461926153,27.630709460791525,j,0.5174743999959901,switch,3,21,B
12,9,switch/standard,f,j,A,17,113,-5.541832691,31.07890857909637,f,0.854961299977731,standard,3,22,A
12,19,switch/standard,f,j,Test,33,113,26.34861461926153,27.630709460791525,j,0.5135272999759763,standard,3,23,B
12,25,switch/standard,f,j,Test,40,140,38.35549087886737,42.56620206713007,j,0.5801113999914378,standard,3,24,B
12,1,switch/standard,f,j,Test,10,30,-20.84275308,-36.88849953,f,0.4425034000305459,standard,3,25,A
12,6,switch/standard,f,j,B,17,30,-3.854444584,-37.8392214,f,1.031352899968624,standard,3,26,A
12,15,switch/standard,f,j,A,25,140,12.129448921922751,51.77476957,f,0.7314776999992318,switch,3,27,A
12,1,switch/standard,f,j,Test,10,30,-20.84275308,-36.88849953,f,0.4603493000031449,standard,3,28,A
12,13,switch/standard,f,j,Test,25,85,9.818056926810664,7.222251006984481,f,1.1206532000214793,standard,3,29,A
12,15,switch/standard,f,j,A,25,140,12.129448921922751,51.77476957,f,0.5201344000524841,standard,3,30,A
12,18,switch/standard,f,j,B,33,85,26.821232143487904,6.976824754974014,j,0.5296606000047177,standard,3,31,B
12,7,switch/standard,f,j,Test,17,57,-6.953638003,-14.02238557,f,0.4986631000065245,standard,3,32,A
12,3,switch/standard,f,j,A,10,85,-26.47077232,11.92758930596587,f,0.47731110005406663,standard,3,33,A
12,21,switch/standard,f,j,B,40,30,45.13982813678688,-35.30081098,j,0.3923260000301525,switch,3,34,B
12,25,switch/standard,f,j,Test,40,140,38.35549087886737,42.56620206713007,j,0.5669765999773517,standard,3,35,B
12,5,switch/standard,f,j,A,10,140,-16.71390068,50.111230393533226,f,0.7094968999736011,switch,3,36,A
12,13,switch/standard,f,j,Test,25,85,9.818056926810664,7.222251006984481,f,0.8467558000120334,standard,3,37,A
12,19,switch/standard,f,j,Test,33,113,26.34861461926153,27.630709460791525,j,0.4678951000096277,standard,3,38,B
12,25,switch/standard,f,j,Test,40,140,38.35549087886737,42.56620206713007,j,0.4222808000049554,switch,3,39,B
12,25,switch/standard,f,j,Test,40,140,38.35549087886737,42.56620206713007,j,0.5884885999839753,standard,3,40,B
12,7,switch/standard,f,j,Test,17,57,-6.953638003,-14.02238557,f,0.47391469997819513,standard,3,41,A
12,16,switch/standard,f,j,B,33,30,30.19684495481618,-38.42373928,j,0.4281695000245236,standard,3,42,B
12,1,switch/standard,f,j,Test,10,30,-20.84275308,-36.88849953,f,0.4738344000070356,switch,3,43,A
12,7,switch/standard,f,j,Test,17,57,-6.953638003,-14.02238557,f,0.6455784999998286,standard,3,44,A
12,24,switch/standard,f,j,B,40,113,37.71162000489743,24.31290640287821,j,0.5297639000345953,switch,3,45,B
12,11,switch/standard,f,j,B,25,30,13.264524555129096,-38.2203846,j,1.841117099975236,standard,3,46,B
12,2,switch/standard,f,j,A,10,57,-24.53495333,-12.0763604,f,0.6368584999581799,standard,3,47,A
12,4,switch/standard,f,j,A,10,113,-23.83479794,30.479004461502832,f,0.513657100033015,standard,3,48,A
12,10,switch/standard,f,j,A,17,140,-1.732665378,46.70107673091564,f,0.5866518000257201,switch,3,49,A
12,12,switch/standard,f,j,B,25,57,9.177647168036223,-16.07892918,j,0.4352083000121638,standard,3,50,B
12,7,switch/standard,f,j,Test,17,57,-6.953638003,-14.02238557,f,0.5346758000086993,standard,3,51,A
12,16,switch/standard,f,j,B,33,30,30.19684495481618,-38.42373928,j,0.42214270000113174,switch,3,52,B
12,8,switch/standard,f,j,A,17,85,-8.995342757,8.387433417892344,f,0.4193756000022404,standard,3,53,A
12,13,switch/standard,f,j,Test,25,85,9.818056926810664,7.222251006984481,f,1.3522140000131913,switch,3,54,A
12,10,switch/standard,f,j,A,17,140,-1.732665378,46.70107673091564,f,0.6079759999993257,standard,3,55,A
13,13,standard/switch,f,j,Test,25,85,9.818056926810664,7.222251006984481,j,3.8517108999949414,standard,1,1,B
13,5,standard/switch,f,j,A,10,140,-16.71390068,50.111230393533226,f,1.7022485999914352,switch,1,2,A
13,20,standard/switch,f,j,A,33,140,26.14711175410772,43.96860584938808,f,1.2466475999972315,standard,1,3,A
13,16,standard/switch,f,j,B,33,30,30.19684495481618,-38.42373928,j,1.1222121000173502,standard,1,4,B
13,13,standard/switch,f,j,Test,25,85,9.818056926810664,7.222251006984481,j,1.5944224999984726,switch,1,5,B
13,2,standard/switch,f,j,A,10,57,-24.53495333,-12.0763604,j,0.920879099983722,standard,1,6,B
13,6,standard/switch,f,j,B,17,30,-3.854444584,-37.8392214,j,0.9367078999930528,switch,1,7,B
13,19,standard/switch,f,j,Test,33,113,26.34861461926153,27.630709460791525,f,1.4961559000075797,standard,1,8,A
13,19,standard/switch,f,j,Test,33,113,26.34861461926153,27.630709460791525,f,1.1378827999869827,standard,1,9,A
13,11,standard/switch,f,j,B,25,30,13.264524555129096,-38.2203846,j,1.338897699984955,standard,1,10,B
13,13,standard/switch,f,j,Test,25,85,9.818056926810664,7.222251006984481,f,2.897729199990863,standard,1,11,A
13,18,standard/switch,f,j,B,33,85,26.821232143487904,6.976824754974014,j,2.930318400001852,standard,1,12,B
13,19,standard/switch,f,j,Test,33,113,26.34861461926153,27.630709460791525,f,1.4730174000142142,switch,1,13,A
13,25,standard/switch,f,j,Test,40,140,38.35549087886737,42.56620206713007,f,0.7398696999880485,standard,1,14,A
13,1,standard/switch,f,j,Test,10,30,-20.84275308,-36.88849953,j,1.3011022999999111,standard,1,15,B
13,23,standard/switch,f,j,B,40,85,38.21996555398914,5.057706707981728,j,2.1250248000142165,standard,1,16,B
13,1,standard/switch,f,j,Test,10,30,-20.84275308,-36.88849953,j,1.204900299984729,standard,1,17,B
13,25,standard/switch,f,j,Test,40,140,38.35549087886737,42.56620206713007,f,1.2579795999918133,standard,1,18,A
13,1,standard/switch,f,j,Test,10,30,-20.84275308,-36.88849953,j,1.2923808000050483,switch,1,19,B
13,22,standard/switch,f,j,B,40,57,41.88083319458841,-14.98800492,j,1.830163899983745,standard,1,20,B
13,7,standard/switch,f,j,Test,17,57,-6.953638003,-14.02238557,j,0.9149828999943566,standard,1,21,B
13,2,standard/switch,f,j,A,10,57,-24.53495333,-12.0763604,j,1.0280934000038542,switch,1,22,B
13,8,standard/switch,f,j,A,17,85,-8.995342757,8.387433417892344,f,2.2723202999914065,standard,1,23,A
13,19,standard/switch,f,j,Test,33,113,26.34861461926153,27.630709460791525,f,3.498263699992094,standard,1,24,A
13,24,standard/switch,f,j,B,40,113,37.71162000489743,24.31290640287821,f,1.042935099976603,standard,1,25,A
13,16,standard/switch,f,j,B,33,30,30.19684495481618,-38.42373928,j,0.926364899991313,switch,1,26,B
13,12,standard/switch,f,j,B,25,57,9.177647168036223,-16.07892918,j,0.9838168999995104,standard,1,27,B
13,24,standard/switch,f,j,B,40,113,37.71162000489743,24.31290640287821,f,1.6058911999862175,switch,1,28,A
13,19,standard/switch,f,j,Test,33,113,26.34861461926153,27.630709460791525,f,3.6824170000036247,standard,1,29,A
13,25,standard/switch,f,j,Test,40,140,38.35549087886737,42.56620206713007,f,1.1067207000160124,standard,1,30,A
13,20,standard/switch,f,j,A,33,140,26.14711175410772,43.96860584938808,f,1.0354375999886545,switch,1,31,A
13,7,standard/switch,f,j,Test,17,57,-6.953638003,-14.02238557,j,1.2329024999926332,standard,1,32,B
13,21,standard/switch,f,j,B,40,30,45.13982813678688,-35.30081098,j,0.9163434999936726,switch,1,33,B
13,7,standard/switch,f,j,Test,17,57,-6.953638003,-14.02238557,j,2.702292900008615,standard,1,34,B
13,13,standard/switch,f,j,Test,25,85,9.818056926810664,7.222251006984481,j,1.3501776000193786,standard,1,35,B
13,17,standard/switch,f,j,B,33,57,26.21866752665977,-14.79865055,j,1.045784599991748,standard,1,36,B
13,10,standard/switch,f,j,A,17,140,-1.732665378,46.70107673091564,f,0.9780213000194636,switch,1,37,A
13,4,standard/switch,f,j,A,10,113,-23.83479794,30.479004461502832,f,0.9773526999924798,standard,1,38,A
13,17,standard/switch,f,j,B,33,57,26.21866752665977,-14.79865055,j,0.9275680000137072,switch,1,39,B
13,1,standard/switch,f,j,Test,10,30,-20.84275308,-36.88849953,j,0.9286041999876034,standard,1,40,B
13,14,standard/switch,f,j,A,25,113,8.045214428,27.52140038259675,f,3.081481100001838,standard,1,41,A
13,10,standard/switch,f,j,A,17,140,-1.732665378,46.70107673091564,f,2.001310599996941,standard,1,42,A
13,15,standard/switch,f,j,A,25,140,12.129448921922751,51.77476957,f,0.8395388000062667,standard,1,43,A
13,7,standard/switch,f,j,Test,17,57,-6.953638003,-14.02238557,j,0.6834365000249818,standard,1,44,B
13,7,standard/switch,f,j,Test,17,57,-6.953638003,-14.02238557,j,0.8221570000168867,switch,1,45,B
13,3,standard/switch,f,j,A,10,85,-26.47077232,11.92758930596587,j,0.7070406999846455,standard,1,46,B
13,13,standard/switch,f,j,Test,25,85,9.818056926810664,7.222251006984481,j,2.7721574000024702,standard,1,47,B
13,21,standard/switch,f,j,B,40,30,45.13982813678688,-35.30081098,j,0.8411859000043478,standard,1,48,B
13,25,standard/switch,f,j,Test,40,140,38.35549087886737,42.56620206713007,f,0.7727264999994077,standard,1,49,A
13,5,standard/switch,f,j,A,10,140,-16.71390068,50.111230393533226,f,0.700424100010423,standard,1,50,A
13,15,standard/switch,f,j,A,25,140,12.129448921922751,51.77476957,f,0.7519623000116553,switch,1,51,A
13,6,standard/switch,f,j,B,17,30,-3.854444584,-37.8392214,j,0.7101797999930568,standard,1,52,B
13,9,standard/switch,f,j,A,17,113,-5.541832691,31.07890857909637,j,0.9752495999855456,standard,1,53,B
13,1,standard/switch,f,j,Test,10,30,-20.84275308,-36.88849953,j,2.182265399984317,standard,1,54,B
13,25,standard/switch,f,j,Test,40,140,38.35549087886737,42.56620206713007,f,0.7724795000103768,switch,1,55,A
13,12,standard/switch,f,j,B,25,57,9.177647168036223,-16.07892918,j,0.9880597000010312,standard,2,1,B
13,13,standard/switch,f,j,Test,25,85,9.818056926810664,7.222251006984481,j,4.146052900003269,standard,2,2,B
13,15,standard/switch,f,j,A,25,140,12.129448921922751,51.77476957,f,0.7674935999966692,switch,2,3,A
13,1,standard/switch,f,j,Test,10,30,-20.84275308,-36.88849953,j,2.063091299991356,standard,2,4,B
13,19,standard/switch,f,j,Test,33,113,26.34861461926153,27.630709460791525,f,1.0331997000030242,standard,2,5,A
13,7,standard/switch,f,j,Test,17,57,-6.953638003,-14.02238557,j,1.854670600005193,standard,2,6,B
13,13,standard/switch,f,j,Test,25,85,9.818056926810664,7.222251006984481,f,2.337672499998007,switch,2,7,A
13,25,standard/switch,f,j,Test,40,140,38.35549087886737,42.56620206713007,f,2.5193290999741293,standard,2,8,A
13,21,standard/switch,f,j,B,40,30,45.13982813678688,-35.30081098,j,1.270732299977681,switch,2,9,B
13,8,standard/switch,f,j,A,17,85,-8.995342757,8.387433417892344,j,3.6896366000000858,standard,2,10,B
13,25,standard/switch,f,j,Test,40,140,38.35549087886737,42.56620206713007,f,0.7616562000184786,switch,2,11,A
13,16,standard/switch,f,j,B,33,30,30.19684495481618,-38.42373928,j,1.13715759999468,standard,2,12,B
13,5,standard/switch,f,j,A,10,140,-16.71390068,50.111230393533226,f,0.9605895999993664,switch,2,13,A
13,10,standard/switch,f,j,A,17,140,-1.732665378,46.70107673091564,f,3.0873531000106595,standard,2,14,A
13,14,standard/switch,f,j,A,25,113,8.045214428,27.52140038259675,f,1.553887299989583,standard,2,15,A
13,1,standard/switch,f,j,Test,10,30,-20.84275308,-36.88849953,j,0.7045962999982294,switch,2,16,B
13,25,standard/switch,f,j,Test,40,140,38.35549087886737,42.56620206713007,f,0.6737262999813538,standard,2,17,A
13,1,standard/switch,f,j,Test,10,30,-20.84275308,-36.88849953,j,0.8447806000185665,standard,2,18,B
13,21,standard/switch,f,j,B,40,30,45.13982813678688,-35.30081098,j,0.6169587000040337,standard,2,19,B
13,17,standard/switch,f,j,B,33,57,26.21866752665977,-14.79865055,j,0.7815784999984317,switch,2,20,B
13,23,standard/switch,f,j,B,40,85,38.21996555398914,5.057706707981728,f,2.4853942999907304,standard,2,21,A
13,25,standard/switch,f,j,Test,40,140,38.35549087886737,42.56620206713007,f,0.6305692000023555,standard,2,22,A
13,20,standard/switch,f,j,A,33,140,26.14711175410772,43.96860584938808,f,0.9237289000011516,switch,2,23,A
13,11,standard/switch,f,j,B,25,30,13.264524555129096,-38.2203846,j,0.9085515000042506,standard,2,24,B
13,13,standard/switch,f,j,Test,25,85,9.818056926810664,7.222251006984481,j,3.189222700020764,standard,2,25,B
13,25,standard/switch,f,j,Test,40,140,38.35549087886737,42.56620206713007,f,0.6097659000079148,standard,2,26,A
13,7,standard/switch,f,j,Test,17,57,-6.953638003,-14.02238557,j,2.398700199992163,switch,2,27,B
13,20,standard/switch,f,j,A,33,140,26.14711175410772,43.96860584938808,f,0.7389966999762692,standard,2,28,A
13,7,standard/switch,f,j,Test,17,57,-6.953638003,-14.02238557,j,1.0604626999993343,standard,2,29,B
13,3,standard/switch,f,j,A,10,85,-26.47077232,11.92758930596587,j,3.0310234000207856,standard,2,30,B
13,4,standard/switch,f,j,A,10,113,-23.83479794,30.479004461502832,f,1.410089099983452,standard,2,31,A
13,2,standard/switch,f,j,A,10,57,-24.53495333,-12.0763604,j,1.118540399998892,standard,2,32,B
13,13,standard/switch,f,j,Test,25,85,9.818056926810664,7.222251006984481,j,7.984393099992303,standard,2,33,B
13,9,standard/switch,f,j,A,17,113,-5.541832691,31.07890857909637,f,1.3857826000021305,standard,2,34,A
13,19,standard/switch,f,j,Test,33,113,26.34861461926153,27.630709460791525,f,0.6939315000199713,standard,2,35,A
13,15,standard/switch,f,j,A,25,140,12.129448921922751,51.77476957,f,0.688988200010499,standard,2,36,A
13,24,standard/switch,f,j,B,40,113,37.71162000489743,24.31290640287821,f,0.9312601999845356,switch,2,37,A
13,24,standard/switch,f,j,B,40,113,37.71162000489743,24.31290640287821,f,1.3805809000041336,standard,2,38,A
13,19,standard/switch,f,j,Test,33,113,26.34861461926153,27.630709460791525,f,1.6820166000106838,standard,2,39,A
13,19,standard/switch,f,j,Test,33,113,26.34861461926153,27.630709460791525,f,1.8922347000043376,switch,2,40,A
13,19,standard/switch,f,j,Test,33,113,26.34861461926153,27.630709460791525,f,1.7085676999995485,standard,2,41,A
13,13,standard/switch,f,j,Test,25,85,9.818056926810664,7.222251006984481,j,1.4777700999984518,standard,2,42,B
13,22,standard/switch,f,j,B,40,57,41.88083319458841,-14.98800492,j,1.6074087000160944,standard,2,43,B
13,6,standard/switch,f,j,B,17,30,-3.854444584,-37.8392214,j,1.333342600002652,standard,2,44,B
13,1,standard/switch,f,j,Test,10,30,-20.84275308,-36.88849953,j,0.8846784000052139,standard,2,45,B
13,10,standard/switch,f,j,A,17,140,-1.732665378,46.70107673091564,f,0.7749604000127874,switch,2,46,A
13,17,standard/switch,f,j,B,33,57,26.21866752665977,-14.79865055,j,2.5339280999905895,standard,2,47,B
13,7,standard/switch,f,j,Test,17,57,-6.953638003,-14.02238557,j,1.5087495000043418,standard,2,48,B
13,2,standard/switch,f,j,A,10,57,-24.53495333,-12.0763604,j,1.142201800015755,switch,2,49,B
13,1,standard/switch,f,j,Test,10,30,-20.84275308,-36.88849953,j,1.861897199996747,standard,2,50,B
13,16,standard/switch,f,j,B,33,30,30.19684495481618,-38.42373928,j,0.8885767000028864,switch,2,51,B
13,7,standard/switch,f,j,Test,17,57,-6.953638003,-14.02238557,j,1.0262985000154004,standard,2,52,B
13,5,standard/switch,f,j,A,10,140,-16.71390068,50.111230393533226,f,0.6635446000145748,standard,2,53,A
13,6,standard/switch,f,j,B,17,30,-3.854444584,-37.8392214,j,2.2345299999869894,switch,2,54,B
13,18,standard/switch,f,j,B,33,85,26.821232143487904,6.976824754974014,j,1.526069399988046,standard,2,55,B
13,12,standard/switch,f,j,B,25,57,9.177647168036223,-16.07892918,j,0.7145742999855429,standard,3,1,B
13,24,standard/switch,f,j,B,40,113,37.71162000489743,24.31290640287821,f,6.410880400013411,standard,3,2,A
13,14,standard/switch,f,j,A,25,113,8.045214428,27.52140038259675,f,1.4763358999916818,standard,3,3,A
13,1,standard/switch,f,j,Test,10,30,-20.84275308,-36.88849953,j,0.695023600012064,switch,3,4,B
13,19,standard/switch,f,j,Test,33,113,26.34861461926153,27.630709460791525,f,2.6658888999954797,standard,3,5,A
13,16,standard/switch,f,j,B,33,30,30.19684495481618,-38.42373928,j,1.7709889999823645,standard,3,6,B
13,15,standard/switch,f,j,A,25,140,12.129448921922751,51.77476957,f,1.0495255999849178,switch,3,7,A
13,25,standard/switch,f,j,Test,40,140,38.35549087886737,42.56620206713007,f,0.7404509000189137,standard,3,8,A
13,7,standard/switch,f,j,Test,17,57,-6.953638003,-14.02238557,j,0.8688417999946978,standard,3,9,B
13,6,standard/switch,f,j,B,17,30,-3.854444584,-37.8392214,j,0.9523779000155628,switch,3,10,B
13,19,standard/switch,f,j,Test,33,113,26.34861461926153,27.630709460791525,f,1.6477555999881588,standard,3,11,A
13,25,standard/switch,f,j,Test,40,140,38.35549087886737,42.56620206713007,f,0.8674273999931756,switch,3,12,A
13,7,standard/switch,f,j,Test,17,57,-6.953638003,-14.02238557,j,1.1577319000207351,standard,3,13,B
13,22,standard/switch,f,j,B,40,57,41.88083319458841,-14.98800492,j,1.1406695999903604,standard,3,14,B
13,6,standard/switch,f,j,B,17,30,-3.854444584,-37.8392214,j,0.7577505999943241,standard,3,15,B
13,1,standard/switch,f,j,Test,10,30,-20.84275308,-36.88849953,j,0.7083528000221122,standard,3,16,B
13,1,standard/switch,f,j,Test,10,30,-20.84275308,-36.88849953,j,0.6616640000138432,standard,3,17,B
13,25,standard/switch,f,j,Test,40,140,38.35549087886737,42.56620206713007,f,0.7849623000074644,standard,3,18,A
13,25,standard/switch,f,j,Test,40,140,38.35549087886737,42.56620206713007,f,0.7429195000149775,standard,3,19,A
13,13,standard/switch,f,j,Test,25,85,9.818056926810664,7.222251006984481,j,1.8316004000080284,standard,3,20,B
13,17,standard/switch,f,j,B,33,57,26.21866752665977,-14.79865055,j,1.2999026000034064,switch,3,21,B
13,9,standard/switch,f,j,A,17,113,-5.541832691,31.07890857909637,f,1.5499384000140708,standard,3,22,A
13,13,standard/switch,f,j,Test,25,85,9.818056926810664,7.222251006984481,j,1.7812375999928918,standard,3,23,B
13,21,standard/switch,f,j,B,40,30,45.13982813678688,-35.30081098,j,0.9634696000139228,switch,3,24,B
13,19,standard/switch,f,j,Test,33,113,26.34861461926153,27.630709460791525,f,1.0502913999953307,standard,3,25,A
13,18,standard/switch,f,j,B,33,85,26.821232143487904,6.976824754974014,f,4.190394100005506,standard,3,26,A
13,20,standard/switch,f,j,A,33,140,26.14711175410772,43.96860584938808,f,0.8010798000032082,switch,3,27,A
13,11,standard/switch,f,j,B,25,30,13.264524555129096,-38.2203846,j,0.6396552999794949,standard,3,28,B
13,21,standard/switch,f,j,B,40,30,45.13982813678688,-35.30081098,j,0.5721022000070661,standard,3,29,B
13,17,standard/switch,f,j,B,33,57,26.21866752665977,-14.79865055,j,0.6257715999963693,standard,3,30,B
13,24,standard/switch,f,j,B,40,113,37.71162000489743,24.31290640287821,f,0.6150080999941565,switch,3,31,A
13,3,standard/switch,f,j,A,10,85,-26.47077232,11.92758930596587,f,3.324447299994062,standard,3,32,A
13,13,standard/switch,f,j,Test,25,85,9.818056926810664,7.222251006984481,j,10.586836899979971,standard,3,33,B
13,10,standard/switch,f,j,A,17,140,-1.732665378,46.70107673091564,f,0.7698578000126872,standard,3,34,A
13,16,standard/switch,f,j,B,33,30,30.19684495481618,-38.42373928,j,0.6657723999815062,switch,3,35,B
13,5,standard/switch,f,j,A,10,140,-16.71390068,50.111230393533226,f,0.6370110000134446,standard,3,36,A
13,7,standard/switch,f,j,Test,17,57,-6.953638003,-14.02238557,j,0.4879154000082053,standard,3,37,B
13,5,standard/switch,f,j,A,10,140,-16.71390068,50.111230393533226,f,0.8036564000067301,switch,3,38,A
13,7,standard/switch,f,j,Test,17,57,-6.953638003,-14.02238557,j,0.5521008000068832,standard,3,39,B
13,8,standard/switch,f,j,A,17,85,-8.995342757,8.387433417892344,j,1.879185800004052,standard,3,40,B
13,7,standard/switch,f,j,Test,17,57,-6.953638003,-14.02238557,j,1.0333590999944136,switch,3,41,B
13,19,standard/switch,f,j,Test,33,113,26.34861461926153,27.630709460791525,f,0.6941917999938596,standard,3,42,A
13,1,standard/switch,f,j,Test,10,30,-20.84275308,-36.88849953,j,0.6170731000020169,standard,3,43,B
13,1,standard/switch,f,j,Test,10,30,-20.84275308,-36.88849953,j,0.7103360999899451,standard,3,44,B
13,2,standard/switch,f,j,A,10,57,-24.53495333,-12.0763604,j,1.319380100001581,switch,3,45,B
13,23,standard/switch,f,j,B,40,85,38.21996555398914,5.057706707981728,j,2.1193061000085436,standard,3,46,B
13,4,standard/switch,f,j,A,10,113,-23.83479794,30.479004461502832,f,0.8316825000219978,standard,3,47,A
13,20,standard/switch,f,j,A,33,140,26.14711175410772,43.96860584938808,f,0.6439527000184171,standard,3,48,A
13,13,standard/switch,f,j,Test,25,85,9.818056926810664,7.222251006984481,f,1.8168105999939144,switch,3,49,A
13,15,standard/switch,f,j,A,25,140,12.129448921922751,51.77476957,j,0.9736445000162348,standard,3,50,B
13,13,standard/switch,f,j,Test,25,85,9.818056926810664,7.222251006984481,f,2.901378000009572,standard,3,51,A
13,19,standard/switch,f,j,Test,33,113,26.34861461926153,27.630709460791525,f,0.691910800000187,switch,3,52,A
13,2,standard/switch,f,j,A,10,57,-24.53495333,-12.0763604,j,0.8946689000003971,standard,3,53,B
13,10,standard/switch,f,j,A,17,140,-1.732665378,46.70107673091564,f,0.8883646999893244,switch,3,54,A
13,25,standard/switch,f,j,Test,40,140,38.35549087886737,42.56620206713007,f,0.7226670000236481,standard,3,55,A
14,25,switch/standard,j,f,Test,40,140,38.35549087886737,42.56620206713007,j,2.974992999981623,standard,1,1,A
14,15,switch/standard,j,f,A,25,140,12.129448921922751,51.77476957,j,1.972484800033271,switch,1,2,A
14,25,switch/standard,j,f,Test,40,140,38.35549087886737,42.56620206713007,j,0.802161600033287,standard,1,3,A
14,17,switch/standard,j,f,B,33,57,26.21866752665977,-14.79865055,f,0.7755775999976322,switch,1,4,B
14,7,switch/standard,j,f,Test,17,57,-6.953638003,-14.02238557,j,1.398009299999103,standard,1,5,A
14,7,switch/standard,j,f,Test,17,57,-6.953638003,-14.02238557,j,1.20256479998352,standard,1,6,A
14,10,switch/standard,j,f,A,17,140,-1.732665378,46.70107673091564,j,0.7515418999828398,switch,1,7,A
14,6,switch/standard,j,f,B,17,30,-3.854444584,-37.8392214,f,0.8479039000230841,standard,1,8,B
14,6,switch/standard,j,f,B,17,30,-3.854444584,-37.8392214,f,0.580259800015483,switch,1,9,B
14,22,switch/standard,j,f,B,40,57,41.88083319458841,-14.98800492,f,0.4593521000351757,standard,1,10,B
14,14,switch/standard,j,f,A,25,113,8.045214428,27.52140038259675,j,0.49379410000983626,standard,1,11,A
14,13,switch/standard,j,f,Test,25,85,9.818056926810664,7.222251006984481,j,1.0967778000049293,standard,1,12,A
14,2,switch/standard,j,f,A,10,57,-24.53495333,-12.0763604,j,0.6989114999887533,switch,1,13,A
14,1,switch/standard,j,f,Test,10,30,-20.84275308,-36.88849953,f,0.6776089000049978,standard,1,14,B
14,21,switch/standard,j,f,B,40,30,45.13982813678688,-35.30081098,f,0.5684379000449553,switch,1,15,B
14,7,switch/standard,j,f,Test,17,57,-6.953638003,-14.02238557,j,0.7670323000056669,standard,1,16,A
14,20,switch/standard,j,f,A,33,140,26.14711175410772,43.96860584938808,j,0.6382901999750175,standard,1,17,A
14,23,switch/standard,j,f,B,40,85,38.21996555398914,5.057706707981728,f,0.4515518000116572,standard,1,18,B
14,3,switch/standard,j,f,A,10,85,-26.47077232,11.92758930596587,j,0.39069410000229254,standard,1,19,A
14,24,switch/standard,j,f,B,40,113,37.71162000489743,24.31290640287821,f,0.5486393999890424,switch,1,20,B
14,9,switch/standard,j,f,A,17,113,-5.541832691,31.07890857909637,j,0.5487970000249334,standard,1,21,A
14,25,switch/standard,j,f,Test,40,140,38.35549087886737,42.56620206713007,j,1.38967629999388,standard,1,22,A
14,13,switch/standard,j,f,Test,25,85,9.818056926810664,7.222251006984481,f,0.5066552999778651,standard,1,23,B
14,5,switch/standard,j,f,A,10,140,-16.71390068,50.111230393533226,j,0.6442648000083864,switch,1,24,A
14,1,switch/standard,j,f,Test,10,30,-20.84275308,-36.88849953,f,0.9692929000011644,standard,1,25,B
14,24,switch/standard,j,f,B,40,113,37.71162000489743,24.31290640287821,j,0.6237553000100888,standard,1,26,A
14,10,switch/standard,j,f,A,17,140,-1.732665378,46.70107673091564,j,0.7326185000129044,standard,1,27,A
14,21,switch/standard,j,f,B,40,30,45.13982813678688,-35.30081098,f,0.4373405000078492,standard,1,28,B
14,19,switch/standard,j,f,Test,33,113,26.34861461926153,27.630709460791525,j,0.5446588000049815,standard,1,29,A
14,18,switch/standard,j,f,B,33,85,26.821232143487904,6.976824754974014,f,0.6970973999705166,standard,1,30,B
14,19,switch/standard,j,f,Test,33,113,26.34861461926153,27.630709460791525,j,0.5160733999800868,standard,1,31,A
14,7,switch/standard,j,f,Test,17,57,-6.953638003,-14.02238557,f,0.6302935000276193,standard,1,32,B
14,1,switch/standard,j,f,Test,10,30,-20.84275308,-36.88849953,f,1.010861799994018,standard,1,33,B
14,20,switch/standard,j,f,A,33,140,26.14711175410772,43.96860584938808,j,0.9991436999989672,switch,1,34,A
14,15,switch/standard,j,f,A,25,140,12.129448921922751,51.77476957,j,0.9266986000002362,standard,1,35,A
14,7,switch/standard,j,f,Test,17,57,-6.953638003,-14.02238557,f,0.7339529000455514,switch,1,36,B
14,1,switch/standard,j,f,Test,10,30,-20.84275308,-36.88849953,f,3.4392458999645896,standard,1,37,B
14,2,switch/standard,j,f,A,10,57,-24.53495333,-12.0763604,j,1.024572700029239,standard,1,38,A
14,1,switch/standard,j,f,Test,10,30,-20.84275308,-36.88849953,f,0.7103139000246301,switch,1,39,B
14,5,switch/standard,j,f,A,10,140,-16.71390068,50.111230393533226,j,0.9667266000178644,standard,1,40,A
14,13,switch/standard,j,f,Test,25,85,9.818056926810664,7.222251006984481,j,2.2390942000201903,standard,1,41,A
14,19,switch/standard,j,f,Test,33,113,26.34861461926153,27.630709460791525,j,1.257740399974864,standard,1,42,A
14,19,switch/standard,j,f,Test,33,113,26.34861461926153,27.630709460791525,j,0.6200065999873914,standard,1,43,A
14,16,switch/standard,j,f,B,33,30,30.19684495481618,-38.42373928,f,0.5937812000047415,switch,1,44,B
14,25,switch/standard,j,f,Test,40,140,38.35549087886737,42.56620206713007,j,0.734738000028301,standard,1,45,A
14,4,switch/standard,j,f,A,10,113,-23.83479794,30.479004461502832,j,0.5763471000245772,standard,1,46,A
14,11,switch/standard,j,f,B,25,30,13.264524555129096,-38.2203846,f,0.5274395000305958,standard,1,47,B
14,25,switch/standard,j,f,Test,40,140,38.35549087886737,42.56620206713007,j,0.7118601999827661,switch,1,48,A
14,13,switch/standard,j,f,Test,25,85,9.818056926810664,7.222251006984481,f,0.5533503999467939,standard,1,49,B
14,17,switch/standard,j,f,B,33,57,26.21866752665977,-14.79865055,f,0.6333322999998927,standard,1,50,B
14,12,switch/standard,j,f,B,25,57,9.177647168036223,-16.07892918,j,0.5591160000185482,standard,1,51,A
14,8,switch/standard,j,f,A,17,85,-8.995342757,8.387433417892344,j,0.8537632999941707,standard,1,52,A
14,13,switch/standard,j,f,Test,25,85,9.818056926810664,7.222251006984481,f,0.4553963000071235,switch,1,53,B
14,16,switch/standard,j,f,B,33,30,30.19684495481618,-38.42373928,f,0.5167858999921009,standard,1,54,B
14,19,switch/standard,j,f,Test,33,113,26.34861461926153,27.630709460791525,j,0.4373378999880515,switch,1,55,A
14,7,switch/standard,j,f,Test,17,57,-6.953638003,-14.02238557,j,1.4979332000366412,standard,2,1,A
14,5,switch/standard,j,f,A,10,140,-16.71390068,50.111230393533226,j,9.203048900002614,switch,2,2,A
14,2,switch/standard,j,f,A,10,57,-24.53495333,-12.0763604,j,0.8576558000058867,standard,2,3,A
14,22,switch/standard,j,f,B,40,57,41.88083319458841,-14.98800492,f,0.8370813999790698,standard,2,4,B
14,17,switch/standard,j,f,B,33,57,26.21866752665977,-14.79865055,f,0.8490814999677241,standard,2,5,B
14,15,switch/standard,j,f,A,25,140,12.129448921922751,51.77476957,j,0.603970299998764,switch,2,6,A
14,24,switch/standard,j,f,B,40,113,37.71162000489743,24.31290640287821,f,4.953858699998818,standard,2,7,B
14,1,switch/standard,j,f,Test,10,30,-20.84275308,-36.88849953,f,6.383623699948657,standard,2,8,B
14,16,switch/standard,j,f,B,33,30,30.19684495481618,-38.42373928,f,0.7221413000370376,standard,2,9,B
14,3,switch/standard,j,f,A,10,85,-26.47077232,11.92758930596587,j,0.6977031999849714,standard,2,10,A
14,25,switch/standard,j,f,Test,40,140,38.35549087886737,42.56620206713007,j,1.2121667999890633,standard,2,11,A
14,1,switch/standard,j,f,Test,10,30,-20.84275308,-36.88849953,f,1.658183799998369,standard,2,12,B
14,19,switch/standard,j,f,Test,33,113,26.34861461926153,27.630709460791525,j,17.94027650001226,standard,2,13,A
14,1,switch/standard,j,f,Test,10,30,-20.84275308,-36.88849953,f,0.8638964000274427,switch,2,14,B
14,8,switch/standard,j,f,A,17,85,-8.995342757,8.387433417892344,j,16.56387640000321,standard,2,15,A
14,7,switch/standard,j,f,Test,17,57,-6.953638003,-14.02238557,j,0.727479100052733,standard,2,16,A
14,13,switch/standard,j,f,Test,25,85,9.818056926810664,7.222251006984481,j,0.6481634000083432,standard,2,17,A
14,7,switch/standard,j,f,Test,17,57,-6.953638003,-14.02238557,f,0.8919117000186816,standard,2,18,B
14,18,switch/standard,j,f,B,33,85,26.821232143487904,6.976824754974014,f,0.9179276999784634,standard,2,19,B
14,9,switch/standard,j,f,A,17,113,-5.541832691,31.07890857909637,j,0.5743200000142679,standard,2,20,A
14,13,switch/standard,j,f,Test,25,85,9.818056926810664,7.222251006984481,f,0.8458896999945864,standard,2,21,B
14,6,switch/standard,j,f,B,17,30,-3.854444584,-37.8392214,f,0.650045600021258,standard,2,22,B
14,25,switch/standard,j,f,Test,40,140,38.35549087886737,42.56620206713007,j,0.7247180999838747,switch,2,23,A
14,4,switch/standard,j,f,A,10,113,-23.83479794,30.479004461502832,j,0.647084399999585,standard,2,24,A
14,10,switch/standard,j,f,A,17,140,-1.732665378,46.70107673091564,j,0.5372766999644227,standard,2,25,A
14,13,switch/standard,j,f,Test,25,85,9.818056926810664,7.222251006984481,f,1.618761599995196,standard,2,26,B
14,19,switch/standard,j,f,Test,33,113,26.34861461926153,27.630709460791525,f,6.214846900023986,switch,2,27,B
14,13,switch/standard,j,f,Test,25,85,9.818056926810664,7.222251006984481,f,0.8167245000367984,standard,2,28,B
14,12,switch/standard,j,f,B,25,57,9.177647168036223,-16.07892918,f,0.6840296000009403,standard,2,29,B
14,23,switch/standard,j,f,B,40,85,38.21996555398914,5.057706707981728,f,0.7270612999564037,standard,2,30,B
14,7,switch/standard,j,f,Test,17,57,-6.953638003,-14.02238557,j,1.4326538000022992,switch,2,31,A
14,7,switch/standard,j,f,Test,17,57,-6.953638003,-14.02238557,j,0.4844133000005968,standard,2,32,A
14,19,switch/standard,j,f,Test,33,113,26.34861461926153,27.630709460791525,j,0.7830400000093505,standard,2,33,A
14,5,switch/standard,j,f,A,10,140,-16.71390068,50.111230393533226,j,0.8455713000148535,standard,2,34,A
14,6,switch/standard,j,f,B,17,30,-3.854444584,-37.8392214,f,0.7292962999781594,switch,2,35,B
14,1,switch/standard,j,f,Test,10,30,-20.84275308,-36.88849953,f,0.5153885000036098,standard,2,36,B
14,21,switch/standard,j,f,B,40,30,45.13982813678688,-35.30081098,f,0.8130730999982916,standard,2,37,B
14,21,switch/standard,j,f,B,40,30,45.13982813678688,-35.30081098,f,0.5459237000322901,switch,2,38,B
14,25,switch/standard,j,f,Test,40,140,38.35549087886737,42.56620206713007,j,0.4811844999785535,standard,2,39,A
14,20,switch/standard,j,f,A,33,140,26.14711175410772,43.96860584938808,j,0.40482280001742765,standard,2,40,A
14,1,switch/standard,j,f,Test,10,30,-20.84275308,-36.88849953,j,1.0355453999945894,standard,2,41,A
14,15,switch/standard,j,f,A,25,140,12.129448921922751,51.77476957,j,0.5827116000000387,standard,2,42,A
14,17,switch/standard,j,f,B,33,57,26.21866752665977,-14.79865055,f,0.5977537999860942,switch,2,43,B
14,25,switch/standard,j,f,Test,40,140,38.35549087886737,42.56620206713007,j,0.5234209999907762,standard,2,44,A
14,24,switch/standard,j,f,B,40,113,37.71162000489743,24.31290640287821,f,0.652451400004793,switch,2,45,B
14,19,switch/standard,j,f,Test,33,113,26.34861461926153,27.630709460791525,j,1.45603400003165,standard,2,46,A
14,10,switch/standard,j,f,A,17,140,-1.732665378,46.70107673091564,j,0.5304450999828987,switch,2,47,A
14,19,switch/standard,j,f,Test,33,113,26.34861461926153,27.630709460791525,j,0.4688026999938302,standard,2,48,A
14,16,switch/standard,j,f,B,33,30,30.19684495481618,-38.42373928,f,0.5592611999600194,switch,2,49,B
14,11,switch/standard,j,f,B,25,30,13.264524555129096,-38.2203846,f,1.2227449999772944,standard,2,50,B
14,20,switch/standard,j,f,A,33,140,26.14711175410772,43.96860584938808,j,0.6278756000101566,switch,2,51,A
14,25,switch/standard,j,f,Test,40,140,38.35549087886737,42.56620206713007,j,0.98500679997960106,standard,2,52,A
14,2,switch/standard,j,f,A,10,57,-24.53495333,-12.0763604,j,0.8538598000304773,switch,2,53,A
14,14,switch/standard,j,f,A,25,113,8.045214428,27.52140038259675,j,0.7693113000132143,standard,2,54,A
14,13,switch/standard,j,f,Test,25,85,9.818056926810664,7.222251006984481,j,1.680401499965228,switch,2,55,A
14,17,switch/standard,j,f,B,33,57,26.21866752665977,-14.79865055,f,2.0271876000333577,standard,3,1,B
14,6,switch/standard,j,f,B,17,30,-3.854444584,-37.8392214,f,2.376217800017912,switch,3,2,B
14,7,switch/standard,j,f,Test,17,57,-6.953638003,-14.02238557,f,0.4689773999853059,standard,3,3,B
14,25,switch/standard,j,f,Test,40,140,38.35549087886737,42.56620206713007,j,0.6402212000102736,standard,3,4,A
14,16,switch/standard,j,f,B,33,30,30.19684495481618,-38.42373928,f,0.5645497000077739,switch,3,5,B
14,11,switch/standard,j,f,B,25,30,13.264524555129096,-38.2203846,f,0.9242464000126348,standard,3,6,B
14,5,switch/standard,j,f,A,10,140,-16.71390068,50.111230393533226,j,0.6531049000332132,switch,3,7,A
14,9,switch/standard,j,f,A,17,113,-5.541832691,31.07890857909637,j,0.5365399000002071,standard,3,8,A
14,16,switch/standard,j,f,B,33,30,30.19684495481618,-38.42373928,f,0.5280199999688193,standard,3,9,B
14,1,switch/standard,j,f,Test,10,30,-20.84275308,-36.88849953,j,4.025404300016817,switch,3,10,A
14,13,switch/standard,j,f,Test,25,85,9.818056926810664,7.222251006984481,j,8.091416499984916,standard,3,11,A
14,1,switch/standard,j,f,Test,10,30,-20.84275308,-36.88849953,j,6.76035509997746,standard,3,12,A
14,7,switch/standard,j,f,Test,17,57,-6.953638003,-14.02238557,j,0.915008299984038,standard,3,13,A
14,2,switch/standard,j,f,A,10,57,-24.53495333,-12.0763604,j,1.5413637000019662,standard,3,14,A
14,15,switch/standard,j,f,A,25,140,12.129448921922751,51.77476957,j,1.0757667000289075,standard,3,15,A
14,6,switch/standard,j,f,B,17,30,-3.854444584,-37.8392214,f,0.9359654000145384,standard,3,16,B
14,24,switch/standard,j,f,B,40,113,37.71162000489743,24.31290640287821,j,0.8624564999481663,switch,3,17,A
14,7,switch/standard,j,f,Test,17,57,-6.953638003,-14.02238557,f,0.738657100009732,standard,3,18,B
14,7,switch/standard,j,f,Test,17,57,-6.953638003,-14.02238557,f,1.714721299998928,standard,3,19,B
14,3,switch/standard,j,f,A,10,85,-26.47077232,11.92758930596587,j,1.2591433000052348,standard,3,20,A
14,21,switch/standard,j,f,B,40,30,45.13982813678688,-35.30081098,f,2.6459880000329576,switch,3,21,B
14,20,switch/standard,j,f,A,33,140,26.14711175410772,43.96860584938808,j,0.6244103999924846,standard,3,22,A
14,24,switch/standard,j,f,B,40,113,37.71162000489743,24.31290640287821,j,1.0530102999764497,standard,3,23,A
14,19,switch/standard,j,f,Test,33,113,26.34861461926153,27.630709460791525,j,0.607796500029508,standard,3,24,A
14,14,switch/standard,j,f,A,25,113,8.045214428,27.52140038259675,j,0.981865799985826,standard,3,25,A
14,7,switch/standard,j,f,Test,17,57,-6.953638003,-14.02238557,j,28.291641400021035,switch,3,26,A
14,25,switch/standard,j,f,Test,40,140,38.35549087886737,42.56620206713007,j,0.9699145000195132,standard,3,27,A
14,1,switch/standard,j,f,Test,10,30,-20.84275308,-36.88849953,f,1.600067500025034,standard,3,28,B
14,15,switch/standard,j,f,A,25,140,12.129448921922751,51.77476957,j,0.6051413000095636,switch,3,29,A
14,5,switch/standard,j,f,A,10,140,-16.71390068,50.111230393533226,j,0.5709426999674179,standard,3,30,A
14,13,switch/standard,j,f,Test,25,85,9.818056926810664,7.222251006984481,j,10.393971599987708,standard,3,31,A
14,10,switch/standard,j,f,A,17,140,-1.732665378,46.70107673091564,j,0.5364895999664441,standard,3,32,A
14,12,switch/standard,j,f,B,25,57,9.177647168036223,-16.07892918,f,1.2176137000205929,standard,3,33,B
14,4,switch/standard,j,f,A,10,113,-23.83479794,30.479004461502832,j,0.5341918999911286,standard,3,34,A
14,13,switch/standard,j,f,Test,25,85,9.818056926810664,7.222251006984481,j,0.9509915999951772,standard,3,35,A
14,17,switch/standard,j,f,B,33,57,26.21866752665977,-14.79865055,f,2.5426473999978043,switch,3,36,B
14,19,switch/standard,j,f,Test,33,113,26.34861461926153,27.630709460791525,j,1.692602800030727,standard,3,37,A
14,10,switch/standard,j,f,A,17,140,-1.732665378,46.70107673091564,j,1.3269349000183863,switch,3,38,A
14,25,switch/standard,j,f,Test,40,140,38.35549087886737,42.56620206713007,j,0.839471900020726,standard,3,39,A
14,2,switch/standard,j,f,A,10,57,-24.53495333,-12.0763604,j,0.7153462000424042,switch,3,40,A
14,1,switch/standard,j,f,Test,10,30,-20.84275308,-36.88849953,f,3.477567400026601,standard,3,41,B
14,13,switch/standard,j,f,Test,25,85,9.818056926810664,7.222251006984481,j,0.70179919997463,switch,3,42,A
14,18,switch/standard,j,f,B,33,85,26.821232143487904,6.976824754974014,f,1.1997664999798872,standard,3,43,B
14,23,switch/standard,j,f,B,40,85,38.21996555398914,5.057706707981728,f,0.8767603999585845,standard,3,44,B
14,8,switch/standard,j,f,A,17,85,-8.995342757,8.387433417892344,j,0.727384899975732,standard,3,45,A
14,25,switch/standard,j,f,Test,40,140,38.35549087886737,42.56620206713007,j,0.4565588000114076,switch,3,46,A
14,25,switch/standard,j,f,Test,40,140,38.35549087886737,42.56620206713007,j,0.6118381000123918,standard,3,47,A
14,19,switch/standard,j,f,Test,33,113,26.34861461926153,27.630709460791525,j,0.3626279000309296,standard,3,48,A
14,20,switch/standard,j,f,A,33,140,26.14711175410772,43.96860584938808,j,0.4893608000129462,switch,3,49,A
14,22,switch/standard,j,f,B,40,57,41.88083319458841,-14.98800492,f,0.48336130002280697,standard,3,50,B
14,21,switch/standard,j,f,B,40,30,45.13982813678688,-35.30081098,f,0.44680949999019504,standard,3,51,B
14,1,switch/standard,j,f,Test,10,30,-20.84275308,-36.88849953,j,0.8270613999920897,standard,3,52,A
14,19,switch/standard,j,f,Test,33,113,26.34861461926153,27.630709460791525,j,0.5439568000147119,standard,3,53,A
14,19,switch/standard,j,f,Test,33,113,26.34861461926153,27.630709460791525,j,0.4173226000275463,switch,3,54,A
14,13,switch/standard,j,f,Test,25,85,9.818056926810664,7.222251006984481,f,0.7821917000110261,standard,3,55,B
15,6,standard/switch,f,j,B,17,30,-3.854444584,-37.8392214,j,24.783259099989664,standard,1,1,B
15,13,standard/switch,f,j,Test,25,85,9.818056926810664,7.222251006984481,f,14.20263449999038,switch,1,2,A
15,7,standard/switch,f,j,Test,17,57,-6.953638003,-14.02238557,j,1.030905099993106,standard,1,3,B
15,25,standard/switch,f,j,Test,40,140,38.35549087886737,42.56620206713007,f,3.4358439000207,switch,1,4,A
15,18,standard/switch,f,j,B,33,85,26.821232143487904,6.976824754974014,j,1.7813581000082197,standard,1,5,B
15,20,standard/switch,f,j,A,33,140,26.14711175410772,43.96860584938808,f,3.148539899964817,switch,1,6,A
15,17,standard/switch,f,j,B,33,57,26.21866752665977,-14.79865055,j,0.713555299967993,standard,1,7,B
15,19,standard/switch,f,j,Test,33,113,26.34861461926153,27.630709460791525,f,0.883353499986697,standard,1,8,A
15,15,standard/switch,f,j,A,25,140,12.129448921922751,51.77476957,f,0.4700367999612354,standard,1,9,A
15,13,standard/switch,f,j,Test,25,85,9.818056926810664,7.222251006984481,j,0.7373653000104241,standard,1,10,B
15,17,standard/switch,f,j,B,33,57,26.21866752665977,-14.79865055,j,0.48903939995216206,switch,1,11,B
15,25,standard/switch,f,j,Test,40,140,38.35549087886737,42.56620206713007,f,1.1882898000185378,standard,1,12,A
15,13,standard/switch,f,j,Test,25,85,9.818056926810664,7.222251006984481,f,0.7375261000124738,standard,1,13,A
15,19,standard/switch,f,j,Test,33,113,26.34861461926153,27.630709460791525,f,7.401934700028505,switch,1,14,A
15,25,standard/switch,f,j,Test,40,140,38.35549087886737,42.56620206713007,f,0.603211099980399,standard,1,15,A
15,6,standard/switch,f,j,B,17,30,-3.854444584,-37.8392214,j,0.3922652000328526,switch,1,16,B
15,10,standard/switch,f,j,A,17,140,-1.732665378,46.70107673091564,f,0.42255660000955686,standard,1,17,A
15,1,standard/switch,f,j,Test,10,30,-20.84275308,-36.88849953,j,0.4677280999603681,standard,1,18,B
15,8,standard/switch,f,j,A,17,85,-8.995342757,8.387433417892344,j,0.9586698000202888,standard,1,19,B
15,1,standard/switch,f,j,Test,10,30,-20.84275308,-36.88849953,j,0.4947008999879472,switch,1,20,B
15,3,standard/switch,f,j,A,10,85,-26.47077232,11.92758930596587,j,0.6234904000302777,standard,1,21,B
15,10,standard/switch,f,j,A,17,140,-1.732665378,46.70107673091564,f,0.4774270999478176,switch,1,22,A
15,19,standard/switch,f,j,Test,33,113,26.34861461926153,27.630709460791525,f,0.5923075000173412,standard,1,23,A
15,25,standard/switch,f,j,Test,40,140,38.35549087886737,42.56620206713007,f,4.790846500021871,standard,1,24,A
15,21,standard/switch,f,j,B,40,30,45.13982813678688,-35.30081098,j,0.665772000036668,switch,1,25,B
15,13,standard/switch,f,j,Test,25,85,9.818056926810664,7.222251006984481,j,1.0126803999883125,standard,1,26,B
15,7,standard/switch,f,j,Test,17,57,-6.953638003,-14.02238557,j,0.4589602000196464,standard,1,27,B
15,5,standard/switch,f,j,A,10,140,-16.71390068,50.111230393533226,f,0.6945916000404395,switch,1,28,A
15,11,standard/switch,f,j,B,25,30,13.264524555129096,-38.2203846,j,2.6641653000260703,standard,1,29,B
15,15,standard/switch,f,j,A,25,140,12.129448921922751,51.77476957,f,0.4905274000484496,switch,1,30,A
15,1,standard/switch,f,j,Test,10,30,-20.84275308,-36.88849953,j,0.6205259999842383,standard,1,31,B
15,19,standard/switch,f,j,Test,33,113,26.34861461926153,27.630709460791525,f,7.586196399992332,standard,1,32,A
15,16,standard/switch,f,j,B,33,30,30.19684495481618,-38.42373928,j,0.5633891999605112,switch,1,33,B
15,23,standard/switch,f,j,B,40,85,38.21996555398914,5.057706707981728,j,0.8189872999791987,standard,1,34,B
15,5,standard/switch,f,j,A,10,140,-16.71390068,50.111230393533226,f,0.9593896000296808,standard,1,35,A
15,24,standard/switch,f,j,B,40,113,37.71162000489743,24.31290640287821,f,2.4310516000259668,switch,1,36,A
15,12,standard/switch,f,j,B,25,57,9.177647168036223,-16.07892918,j,0.5946392000187188,standard,1,37,B
15,20,standard/switch,f,j,A,33,140,26.14711175410772,43.96860584938808,f,0.5123128999839537,standard,1,38,A
15,25,standard/switch,f,j,Test,40,140,38.35549087886737,42.56620206713007,f,0.6413865000358783,standard,1,39,A
15,1,standard/switch,f,j,Test,10,30,-20.84275308,-36.88849953,j,0.550894399988465,standard,1,40,B
15,4,standard/switch,f,j,A,10,113,-23.83479794,30.479004461502832,f,0.8537920999806374,standard,1,41,A
15,2,standard/switch,f,j,A,10,57,-24.53495333,-12.0763604,j,0.6652310999925248,switch,1,42,B
15,7,standard/switch,f,j,Test,17,57,-6.953638003,-14.02238557,j,0.9565583000076004,standard,1,43,B
15,13,standard/switch,f,j,Test,25,85,9.818056926810664,7.222251006984481,j,0.6930981999612413,standard,1,44,B
15,21,standard/switch,f,j,B,40,30,45.13982813678688,-35.30081098,j,0.47043839999241754,standard,1,45,B
15,22,standard/switch,f,j,B,40,57,41.88083319458841,-14.98800492,j,0.6492703999974765,standard,1,46,B
15,7,standard/switch,f,j,Test,17,57,-6.953638003,-14.02238557,j,0.4301185000222176,standard,1,47,B
15,9,standard/switch,f,j,A,17,113,-5.541832691,31.07890857909637,f,0.48946880002040416,standard,1,48,A
15,19,standard/switch,f,j,Test,33,113,26.34861461926153,27.630709460791525,f,0.4369392999797128,standard,1,49,A
15,24,standard/switch,f,j,B,40,113,37.71162000489743,24.31290640287821,f,0.4649250999791548,standard,1,50,A
15,14,standard/switch,f,j,A,25,113,8.045214428,27.52140038259675,f,1.2295803999877537,standard,1,51,A
15,16,standard/switch,f,j,B,33,30,30.19684495481618,-38.42373928,j,0.5534736000117846,standard,1,52,B
15,7,standard/switch,f,j,Test,17,57,-6.953638003,-14.02238557,j,0.5128249000408687,switch,1,53,B
15,2,standard/switch,f,j,A,10,57,-24.53495333,-12.0763604,f,2.122365000017453,standard,1,54,A
15,1,standard/switch,f,j,Test,10,30,-20.84275308,-36.88849953,j,1.8746404999983497,standard,1,55,B
15,24,standard/switch,f,j,B,40,113,37.71162000489743,24.31290640287821,f,1.8233896999736317,standard,2,1,A
15,7,standard/switch,f,j,Test,17,57,-6.953638003,-14.02238557,j,1.251720000000205,standard,2,2,B
15,6,standard/switch,f,j,B,17,30,-3.854444584,-37.8392214,j,0.5510380000341684,switch,2,3,B
15,8,standard/switch,f,j,A,17,85,-8.995342757,8.387433417892344,j,2.2619802999543026,standard,2,4,B
15,19,standard/switch,f,j,Test,33,113,26.34861461926153,27.630709460791525,f,3.0722818999784067,standard,2,5,A
15,16,standard/switch,f,j,B,33,30,30.19684495481618,-38.42373928,j,0.8655261999811046,switch,2,6,B
15,25,standard/switch,f,j,Test,40,140,38.35549087886737,42.56620206713007,f,0.8049638000084087,standard,2,7,A
15,25,standard/switch,f,j,Test,40,140,38.35549087886737,42.56620206713007,f,0.6352282000007108,standard,2,8,A
15,19,standard/switch,f,j,Test,33,113,26.34861461926153,27.630709460791525,f,0.5183314000023529,standard,2,9,A
15,19,standard/switch,f,j,Test,33,113,26.34861461926153,27.630709460791525,f,0.5118021999951452,standard,2,10,A
15,1,standard/switch,f,j,Test,10,30,-20.84275308,-36.88849953,j,0.6094917999580503,standard,2,11,B
15,25,standard/switch,f,j,Test,40,140,38.35549087886737,42.56620206713007,f,8.543847399996594,switch,2,12,A
15,25,standard/switch,f,j,Test,40,140,38.35549087886737,42.56620206713007,f,0.7214216000284068,standard,2,13,A
15,10,standard/switch,f,j,A,17,140,-1.732665378,46.70107673091564,f,0.8895708000054583,switch,2,14,A
15,23,standard/switch,f,j,B,40,85,38.21996555398914,5.057706707981728,j,1.6752945999614894,standard,2,15,B
15,21,standard/switch,f,j,B,40,30,45.13982813678688,-35.30081098,j,10.349578099965584,standard,2,16,B
15,7,standard/switch,f,j,Test,17,57,-6.953638003,-14.02238557,j,1.191647199972067,standard,2,17,B
15,19,standard/switch,f,j,Test,33,113,26.34861461926153,27.630709460791525,f,1.1647670000093058,switch,2,18,A
15,11,standard/switch,f,j,B,25,30,13.264524555129096,-38.2203846,j,1.6601675999700092,standard,2,19,B
15,24,standard/switch,f,j,B,40,113,37.71162000489743,24.31290640287821,f,0.8067452000104822,switch,2,20,A
15,4,standard/switch,f,j,A,10,113,-23.83479794,30.479004461502832,f,0.699458799965214,standard,2,21,A
15,13,standard/switch,f,j,Test,25,85,9.818056926810664,7.222251006984481,j,1.365746700030286,standard,2,22,B
15,9,standard/switch,f,j,A,17,113,-5.541832691,31.07890857909637,f,0.5329463999951258,standard,2,23,A
15,10,standard/switch,f,j,A,17,140,-1.732665378,46.70107673091564,f,0.5413170999963768,standard,2,24,A
15,15,standard/switch,f,j,A,25,140,12.129448921922751,51.77476957,f,0.486269099987112,standard,2,25,A
15,13,standard/switch,f,j,Test,25,85,9.818056926810664,7.222251006984481,j,0.7210908999550156,switch,2,26,B
15,1,standard/switch,f,j,Test,10,30,-20.84275308,-36.88849953,j,0.6573117999942042,standard,2,27,B
15,7,standard/switch,f,j,Test,17,57,-6.953638003,-14.02238557,j,0.4767551000113599,switch,2,28,B
15,7,standard/switch,f,j,Test,17,57,-6.953638003,-14.02238557,j,0.40041619999101385,standard,2,29,B
15,21,standard/switch,f,j,B,40,30,45.13982813678688,-35.30081098,j,0.4938871000194922,switch,2,30,B
15,12,standard/switch,f,j,B,25,57,9.177647168036223,-16.07892918,j,0.5848130999947898,standard,2,31,B
15,18,standard/switch,f,j,B,33,85,26.821232143487904,6.976824754974014,j,0.4154810000327416,standard,2,32,B
15,15,standard/switch,f,j,A,25,140,12.129448921922751,51.77476957,f,0.8921433000359684,switch,2,33,A
15,25,standard/switch,f,j,Test,40,140,38.35549087886737,42.56620206713007,f,0.40622499998426065,standard,2,34,A
15,2,standard/switch,f,j,A,10,57,-24.53495333,-12.0763604,j,0.789152399986051,switch,2,35,B
15,13,standard/switch,f,j,Test,25,85,9.818056926810664,7.222251006984481,j,0.6511739999987185,standard,2,36,B
15,17,standard/switch,f,j,B,33,57,26.21866752665977,-14.79865055,j,0.47829539998201653,standard,2,37,B
15,16,standard/switch,f,j,B,33,30,30.19684495481618,-38.42373928,j,0.5935607000137679,standard,2,38,B
15,7,standard/switch,f,j,Test,17,57,-6.953638003,-14.02238557,j,0.4082433999865316,standard,2,39,B
15,5,standard/switch,f,j,A,10,140,-16.71390068,50.111230393533226,f,0.5254176000016741,standard,2,40,A
15,2,standard/switch,f,j,A,10,57,-24.53495333,-12.0763604,j,0.9902184000238776,standard,2,41,B
15,1,standard/switch,f,j,Test,10,30,-20.84275308,-36.88849953,j,0.43614840001100674,standard,2,42,B
15,17,standard/switch,f,j,B,33,57,26.21866752665977,-14.79865055,j,0.5351231999811716,switch,2,43,B
15,20,standard/switch,f,j,A,33,140,26.14711175410772,43.96860584938808,f,0.5210727999801748,standard,2,44,A
15,22,standard/switch,f,j,B,40,57,41.88083319458841,-14.98800492,j,2.553776999993715,standard,2,45,B
15,1,standard/switch,f,j,Test,10,30,-20.84275308,-36.88849953,j,0.7284162999712862,standard,2,46,B
15,20,standard/switch,f,j,A,33,140,26.14711175410772,43.96860584938808,f,0.487859099986963,switch,2,47,A
15,3,standard/switch,f,j,A,10,85,-26.47077232,11.92758930596587,j,1.635242799995467,standard,2,48,B
15,14,standard/switch,f,j,A,25,113,8.045214428,27.52140038259675,f,0.9017812000238336,standard,2,49,A
15,13,standard/switch,f,j,Test,25,85,9.818056926810664,7.222251006984481,j,0.807855200022459,standard,2,50,B
15,13,standard/switch,f,j,Test,25,85,9.818056926810664,7.222251006984481,j,0.5973010000307113,standard,2,51,B
15,1,standard/switch,f,j,Test,10,30,-20.84275308,-36.88849953,j,5.787196099990979,switch,2,52,B
15,6,standard/switch,f,j,B,17,30,-3.854444584,-37.8392214,j,0.4390825000009499,standard,2,53,B
15,5,standard/switch,f,j,A,10,140,-16.71390068,50.111230393533226,f,0.4905624999664724,switch,2,54,A
15,19,standard/switch,f,j,Test,33,113,26.34861461926153,27.630709460791525,f,1.069417399994563,standard,2,55,A
15,15,standard/switch,f,j,A,25,140,12.129448921922751,51.77476957,f,0.5863200000021607,standard,3,1,A
15,22,standard/switch,f,j,B,40,57,41.88083319458841,-14.98800492,j,0.6649275000090711,standard,3,2,B
15,13,standard/switch,f,j,Test,25,85,9.818056926810664,7.222251006984481,j,0.6684978000121191,standard,3,3,B
15,6,standard/switch,f,j,B,17,30,-3.854444584,-37.8392214,j,0.5427564000128768,standard,3,4,B
15,25,standard/switch,f,j,Test,40,140,38.35549087886737,42.56620206713007,f,0.6066928999498487,switch,3,5,A
15,13,standard/switch,f,j,Test,25,85,9.818056926810664,7.222251006984481,j,1.3807811999577098,standard,3,6,B
15,10,standard/switch,f,j,A,17,140,-1.732665378,46.70107673091564,f,0.6513986000209115,standard,3,7,A
15,21,standard/switch,f,j,B,40,30,45.13982813678688,-35.30081098,j,0.7593258999986574,standard,3,8,B
15,10,standard/switch,f,j,A,17,140,-1.732665378,46.70107673091564,f,0.5741286999545991,switch,3,9,A
15,7,standard/switch,f,j,Test,17,57,-6.953638003,-14.02238557,j,0.5970177000272088,standard,3,10,B
15,23,standard/switch,f,j,B,40,85,38.21996555398914,5.057706707981728,j,8.859040800016373,standard,3,11,B
15,19,standard/switch,f,j,Test,33,113,26.34861461926153,27.630709460791525,j,2.416144500020891,standard,3,12,B
15,1,standard/switch,f,j,Test,10,30,-20.84275308,-36.88849953,j,0.5088656999869272,switch,3,13,B
15,2,standard/switch,f,j,A,10,57,-24.53495333,-12.0763604,j,1.0863354000030083,standard,3,14,B
15,19,standard/switch,f,j,Test,33,113,26.34861461926153,27.630709460791525,f,2.144601000007242,standard,3,15,A
15,20,standard/switch,f,j,A,33,140,26.14711175410772,43.96860584938808,f,0.5032914999756031,standard,3,16,A
15,4,standard/switch,f,j,A,10,113,-23.83479794,30.479004461502832,f,0.5444833999499679,standard,3,17,A
15,5,standard/switch,f,j,A,10,140,-16.71390068,50.111230393533226,f,0.408832999994047,switch,3,18,A
15,24,standard/switch,f,j,B,40,113,37.71162000489743,24.31290640287821,j,2.14306829997804,standard,3,19,B
15,21,standard/switch,f,j,B,40,30,45.13982813678688,-35.30081098,j,0.5020164999878034,switch,3,20,B
15,1,standard/switch,f,j,Test,10,30,-20.84275308,-36.88849953,j,0.5995231000124477,standard,3,21,B
15,9,standard/switch,f,j,A,17,113,-5.541832691,31.07890857909637,j,0.4939680999959819,standard,3,22,B
15,19,standard/switch,f,j,Test,33,113,26.34861461926153,27.630709460791525,j,7.967681700014509,switch,3,23,B
15,14,standard/switch,f,j,A,25,113,8.045214428,27.52140038259675,j,0.9055856000049972,standard,3,24,B
15,7,standard/switch,f,j,Test,17,57,-6.953638003,-14.02238557,j,0.7002903000102378,standard,3,25,B
15,2,standard/switch,f,j,A,10,57,-24.53495333,-12.0763604,j,0.670267799985595,switch,3,26,B
15,3,standard/switch,f,j,A,10,85,-26.47077232,11.92758930596587,j,0.5522788999951445,standard,3,27,B
15,7,standard/switch,f,j,Test,17,57,-6.953638003,-14.02238557,j,0.8490798000129871,standard,3,28,B
15,16,standard/switch,f,j,B,33,30,30.19684495481618,-38.42373928,j,0.6599612000281923,standard,3,29,B
15,25,standard/switch,f,j,Test,40,140,38.35549087886737,42.56620206713007,f,0.9034161999588832,standard,3,30,A
15,8,standard/switch,f,j,A,17,85,-8.995342757,8.387433417892344,j,2.2885389999719337,standard,3,31,B
15,25,standard/switch,f,j,Test,40,140,38.35549087886737,42.56620206713007,f,0.5142069000285119,standard,3,32,A
